timestamp,accX,accY,accZ
0.0,1.7679524600228922,2.2232321906718493,0.2518265884401065
0.001,-0.6321576071832842,-1.0079367751520665,-1.17443097718978
0.002,-0.6387181618164195,0.6222885626882866,0.1048975120743108
0.003,2.093577354797566,0.2916901191855477,0.040516076526837
0.004,-2.570167044345243,-0.407871878900238,0.7239458916886049
0.005,-0.9879934510710376,1.0298974361014672,1.0243701427108642
0.006,1.5303010931168262,0.6449386891325342,-1.1348155175027492
0.007,-0.675489665562635,0.0222236664364584,0.2633761869718972
0.008,-0.0833253649623282,-1.395137184119605,1.3182114592929923
0.009000000000000001,0.863284373914183,-1.8004810448883608,-1.247062125974247
0.01,-1.8795269288298693,-1.2388980129459346,-0.3820712750007751
0.011,0.7569250941724679,1.1385946923880366,-0.3044902982741121
0.012,0.705723070050076,-1.879733136797408,1.489889675369768
0.013000000000000001,-0.6085207117869467,0.3754722363834448,0.2848422775375429
0.014,0.0426480832607566,1.1634864808308902,-2.202749314106254
0.015,0.7214765006197652,-0.9694315601968454,-0.8558405208966718
0.016,-0.4509594079228397,0.1377159606563021,0.0586822817976855
0.017,-0.7175123128320803,3.441482084330904,0.6380983655754854
0.018000000000000002,1.1560929964395723,1.1725465314085892,1.489889675369768
0.019,0.4877668661270232,-1.603471646115045,0.722279112891743
0.02,1.1875998575789508,0.8940200280818008,-1.7158815439279476
0.021,0.3800981752754024,0.128655910078603,-0.1575612219083165
0.022,-1.4107847496508723,-1.1551158957480376,0.2666760722666944
0.023,-0.3249184642817184,-0.0343782990283416,0.5159352650701327
0.024,-0.5927672812172574,0.2667983307426942,1.1019679555869903
0.025,-0.0623072917858019,0.0743189572582277,-1.1661812639527864
0.026000000000000002,0.1398144870659178,-0.4304986546986666,0.7371454328677938
0.027,-0.6846825414991888,0.6064568248231321,0.7206291702443443
0.028,-0.3012815688853809,1.2676537118286102,0.5836165859124037
0.029,-0.7660820156510536,-0.8743243797768245,-0.9895532199338152
0.03,-0.7424586193383234,-1.2751382152567308,-0.1806772551213608
0.031,0.007199489708054,-0.8109273763787502,-0.1608611072031137
0.032,0.1713213482052963,-0.6637482557827789,-0.276424437118872
0.033,1.4186906698518815,-0.1338754008622991,0.7173292849495471
0.034,-0.1253345131481661,-0.9309496958874434,-1.4847717202458943
0.035,0.3604030122923891,0.2645333180982695,-1.1892972971658309
0.036000000000000004,0.8711678387408313,0.2079080019876507,0.0586822817976855
0.037,-1.045756029826565,0.3505804479405914,0.2369602684640556
0.038,0.0190111878644191,1.2676537118286102,1.3330609431195806
0.039,1.2834433511905992,0.4524593156480677,1.3050119181138031
0.04,-1.037886064083524,0.062993894036104,-0.5405499498983614
0.041,0.2855505936900525,-0.3557765880784685,-0.941671210860328
0.042,0.1844559565551743,0.334725359429618,0.3558234836746111
0.043000000000000003,-0.3249184642817184,-0.5618460374294837,0.3904891154194457
0.044,0.2317297473478493,-1.0917188923499634,1.1366335873318254
0.045,-0.6098436219804595,-0.3399448502133141,0.3508736557324152
0.046,-0.3485418605944486,-0.1678272398828516,-0.9169220711493482
0.047,0.6794673524339273,0.2486782295872963,0.8394923854548998
0.048,-0.9840517186577136,0.4094474260498161,1.1102176688239838
0.049,-1.3385646523519543,0.0403437675918564,-1.6250841898726325
0.05,-0.1542225520677334,-1.2592831267457572,-0.8442740862154182
0.051000000000000004,-0.4982331987155147,1.070644313055294,-0.1080461063368938
0.052000000000000005,-0.0859441871821394,-1.7936860069550866,-0.3408058726663458
0.053,1.6261445867284747,0.0358137423030069,1.489889675369768
0.054,-0.5455069895081897,0.7151307304638828,0.2320104405218598
0.055,-0.3249184642817184,-1.8231311713326084,-2.420659596609118
0.056,0.8711678387408313,-0.002668122006395,-1.2965940776951328
0.057,0.2842411825801468,1.0185723728793434,0.674413939967719
0.058,-0.4509594079228397,-0.077273435397499,1.1333337020370282
0.059000000000000004,1.3294077308733685,0.8079728982394788,1.489889675369768
0.06,0.041338672150851,1.1476313923199168,0.0784984297159326
0.061,0.428681377177983,0.9936572337906712,-1.971639490424201
0.062,-0.2185591845400033,-0.0366433116727663,-0.0221985802237747
0.063,-0.1647248391141929,-0.4440887305652152,0.4763198053831018
0.064,0.4194885012414291,1.0457525246124404,1.097001291495331
0.065,-1.292613771752792,0.8487431258391245,1.489889675369768
0.066,-0.6557945025796217,0.8668632269945225,-1.554102983735564
0.067,-0.4680357486860418,-1.4427024496525247,0.4565204936143181
0.068,0.0295134749108786,-1.297788341700978,1.181198874961052
0.069,-1.4357310561571155,-0.4214619547667865,-0.7072615018834776
0.07,0.969643653655898,0.2056429893432259,-0.8657401767810637
0.07100000000000001,-0.756902638798107,-1.4517625002302237,-0.1971766815953473
0.07200000000000001,-0.1621060168943817,-0.813192389023175,-0.3523554711981362
0.073,1.757450172976433,-0.906034556798771,1.0293199706530602
0.074,-0.6413504831198381,-0.011728172584094,0.3079414746011238
0.075,-1.3044254699091573,1.1521614176087662,-1.941923686621562
0.076,1.1272049575200052,1.482783211757324,-0.647846730427663
0.077,-0.1266439242580718,1.0751743383441434,0.4482539442278617
0.078,0.3630218345122003,0.3822672743167191,0.5638172741436199
0.079,1.199411555735316,0.1920529134766774,1.316561516645594
0.08,-0.4010667949103534,0.0154286285031841,0.8097765816522611
0.081,1.293959137320666,0.2781000433189993,-0.5586993190197466
0.082,0.06234324624377,-1.0011417372187918,-0.8574904635440707
0.083,-0.9341591056452272,-1.0079367751520665,1.050786061218706
0.084,0.5429106226627392,-1.1890910854144088,-0.146011623376526
0.085,-1.3425063847652785,-0.5233408224742628,-0.3655550123773254
0.08600000000000001,-0.5560092765546492,0.4343625651384885,-0.2599081744954223
0.08700000000000001,0.2802994501668227,1.2653886991841854,0.7041297437703578
0.088,0.2579854649639981,1.3944710692705775,1.1102176688239838
0.089,-1.7390284666453573,-2.269198558409372,-1.2189962648190067
0.09,-0.0256302816248373,-0.7882772499345027,-1.091900172520921
0.091,-0.2671423864425839,0.4411576030717627,0.302991646658928
0.092,-0.5520675441413251,0.2939551318299725,0.1890950955400317
0.093,1.4081883828054218,-2.405075966429038,1.489889675369768
0.094,-0.0321908362579727,-0.9762265981301196,-0.8376743156258236
0.095,0.3709052993388486,0.3822672743167191,-2.7210838476313777
0.096,0.9499484906728848,-1.5400746427169705,-0.7633932241939582
0.097,-1.4173453042840078,2.021692766609684,0.479619690677899
0.098,-0.2947210142522455,2.198317051583177,1.1234172100031727
0.099,2.000352683405729,0.2622683054538448,1.489889675369768
0.1,-0.8488043999964313,-0.4146669168335122,-0.7336774203913191
0.101,0.4129144475246865,1.446543009446528,-0.6065644919437704
0.10200000000000001,0.3367661168960516,0.7377808569081303,0.6843135958521107
0.10300000000000001,-0.1909805567303416,0.3234002962074943,-0.035414957552427
0.10400000000000001,0.1293122000194584,-0.7294102718252778,1.489889675369768
0.105,-0.2737029410757193,-0.0931051732626535,-0.931771554975936
0.106,0.2894923261033766,-0.7679154867804987,-0.873989890018057
0.107,-1.09302982061924,-0.0004031093619702,1.489889675369768
0.108,1.2637481882075858,0.5113496444031113,0.581966643265005
0.109,-1.266344555053036,0.090174045769201,-0.1228955901634817
0.11,-1.33987406346186,-1.4404374370081,-0.6131810986828282
0.111,0.1109264481463506,-1.1369957945926397,-1.199196953050223
0.112,-1.1245366817586184,0.7626959959968026,-0.3573052991403321
0.113,1.778454747069352,0.7785510845077758,0.7140293996547499
0.114,0.7201670895098596,-0.1678272398828516,0.7932771551782745
0.115,-0.4404571208763801,-0.0999002111959278,-1.4831217775984955
0.116,0.5809915375188603,-0.2335126065711694,-0.6891121327620925
0.117,0.8199523155348322,1.269918724473035,0.7932771551782745
0.11800000000000001,-1.0221191344302274,2.037547855120657,0.3426071063459585
0.11900000000000001,1.3740492003626248,-0.2991746226136685,0.945139223336803
0.12,0.9538767240026016,-0.4508837684984895,0.9946543389082256
0.121,-0.4220713690032724,0.6019267995342826,-1.618484419283038
0.122,1.1127609380602217,-0.6592182304939294,-0.7237777645069273
0.123,-0.4247036903066909,-0.2040674421936476,0.7932771551782745
0.124,-1.3648203699681032,0.4773744547367399,1.2818958849007591
0.125,-0.2133080410167735,-0.3512465627896191,0.9831047403764348
0.126,-1.041814297413241,0.5113496444031113,-1.20249683834502
0.127,0.0899218740534316,0.5634215845790619,0.910473591591968
0.128,1.0746800232041005,0.656263752354658,0.2831923348901443
0.129,-1.127169003062037,-1.2706081899678812,0.0537324538554897
0.13,-0.1831105909873006,-1.4427024496525247,-1.0984999431105156
0.131,0.1555679176356071,-0.1565255273065466,-1.7736632088858268
0.132,-1.570964875734791,-0.9898166739966682,1.489889675369768
0.133,0.8961141452470744,-1.6691336621575437,0.4895361827117545
0.134,1.2532459011611263,-0.1316103882178743,0.4977858959487475
0.135,-0.6636779674062699,0.9212001798148978,-0.6676460421964467
0.136,-0.4286454227200151,0.6313486132659857,-2.66496896147036
0.137,0.9420650258462364,-0.1429354514399981,-0.2615581171428209
0.138,-1.0142491686871864,0.3437854100073171,1.4733734127463185
0.139,0.9722624758757094,1.1227396038770634,0.7371454328677938
0.14,-1.02869318814697,1.6480824335086934,1.1597327843954064
0.14100000000000001,0.9670113323524796,0.2532082548761458,0.1692789476217846
0.14200000000000002,0.0190111878644191,-1.2706081899678812,-0.6759125915829034
0.14300000000000002,-0.0571371427642158,-0.3286197869911904,-0.000749325807592
0.14400000000000002,0.0478992267839863,-0.3535115754340438,0.3822225660329893
0.145,-1.2807885745128198,0.5520965213569381,0.1560794064425953
0.146,-0.3144161772352589,0.8668632269945225,-0.2929238635928585
0.147,0.8790378044838723,0.1445109985895763,-0.5273335725697089
0.148,-0.2723935299658137,-0.482593945520436,0.8460921560444943
0.149,-1.8571994445434368,-1.1256940820163346,1.0293199706530602
0.15,0.2317297473478493,1.1431013670310672,-0.5818153522327908
0.151,-1.1665593290280638,-0.0614183468865257,-0.2978736915350544
0.152,0.0794195870069721,-1.3249451427882564,-0.5983147787067772
0.153,2.62666966553244,-2.504713172137909,-0.1608611072031137
0.154,-0.8750736166961872,0.5158796696919608,1.489889675369768
0.155,0.3879681410184434,0.232823141076323,0.1494796358530009
0.156,0.5350271578360909,-1.3068250416328584,-1.6547999936752713
0.157,-0.9827288084642006,1.041222499323591,-1.1760809198371789
0.158,0.275048306643593,1.1612214681864652,0.2666760722666944
0.159,0.969643653655898,0.5000245811809876,1.489889675369768
0.16,0.0465898156740807,0.4275675272052142,0.4218548618694835
0.161,1.2545688113546392,1.6729742219515469,-1.1760809198371789
0.162,0.0597244240239587,-0.002668122006395,0.5142853224227341
0.163,-1.320178900478847,-0.5391959109852361,0.0966477988373177
0.164,-1.1875639031209826,1.3559658543153563,1.489889675369768
0.165,-0.1332179779748144,-0.1338754008622991,0.4928360680065517
0.166,-0.8684995629794446,0.0833790078359268,-1.5607027543251586
0.167,0.6308841505313466,0.6653238029323569,0.925323075418556
0.168,2.2012460456491865,-0.4939190087425598,0.4466040015804631
0.169,-1.9123567001627608,-1.879733136797408,0.5142853224227341
0.17,0.1148681805596747,-0.2561393823695982,-0.8541905782492732
0.171,-0.3025909799952865,-1.723493965623738,-1.1529648866241342
0.17200000000000001,-1.4278475913304676,0.0312837170141574,0.0933479135425205
0.17300000000000001,1.4935295893706106,-0.3580416007228934,0.7932771551782745
0.17400000000000002,0.8475309433444936,0.0335487296585822,0.4169050339272873
0.17500000000000002,0.2553531436605796,-1.186826072769984,-1.5243871799329252
0.176,1.3136543003036794,-0.029848273739492,-0.4827682849404822
0.177,-1.2597840004199008,1.5099400128446023,0.4433041162856658
0.178,-0.9407196602783628,2.1937870262943275,0.4135883124830271
0.179,2.62666966553244,0.4728444294478904,1.1003180129395915
0.18,-0.90527106672566,-0.1927423789715239,0.3937890007142433
0.181,0.3774658539719839,0.5113496444031113,-0.5355832858067022
0.182,1.8112845184022432,-1.0554786900391673,-1.0687841393078767
0.183,-1.6405526517302904,-0.0704783974642248,0.1379132011717472
0.184,-0.6715479331493109,0.1377159606563021,1.3561769763326246
0.185,0.6781444422404144,0.63814365119926,0.3673730822064014
0.186,-2.247174470873988,0.1263908974341783,-0.2285424280453847
0.187,1.1534606751361538,0.31660525827422,-0.1790273124739622
0.188,1.5211082171802723,2.0307528171873828,0.5027357238909435
0.189,-2.536027861902446,-0.9603715096191464,1.1976983014350386
0.19,0.6742162089106973,-2.3733657894070923,-0.7567934536043635
0.191,-0.9183921759919308,0.1784861882559477,-1.2536618965638413
0.192,-1.7849928463281268,-2.0586224344153266,-0.4844182275878809
0.193,2.391637120846185,-1.3974021967640298,0.2699759575614916
0.194,0.2855505936900525,-0.1950073916159486,1.4865897900749707
0.195,-0.5901484589974462,-0.0614183468865257,-0.3028403556267136
0.196,2.119846571497322,-1.6759287000908183,-1.7175314865753462
0.197,-0.8606295972364036,2.433831665311714,-0.2830242077084666
0.198,-1.8874103936565176,2.284364181425499,-0.0205486375763761
0.199,1.6996740951372982,0.6947689673098788,0.9286397968628164
0.2,-0.3721787559907862,0.7694910339300768,1.470073527451521
0.201,0.3026269344532546,1.1023544900772404,-0.3094401262163082
0.202,1.5053547866105832,-0.5278708477631123,-0.7997087985861916
0.203,-1.1127249836022532,-1.7778309184441137,0.2039445793666192
0.20400000000000001,0.4221073234612404,-0.1497304893732723,0.2782256707984851
0.20500000000000002,-0.0728095788322614,0.4343625651384885,1.489889675369768
0.20600000000000002,-1.7928628120711678,-0.020788223161793,-0.2681747238818788
0.20700000000000002,0.2553531436605796,-0.5075090846091084,-1.32795982414517
0.20800000000000002,1.007711069428412,-0.5459909489185103,0.1494796358530009
0.209,-1.0562583168730244,-0.4191969421223617,0.200644694071822
0.21,0.5573546421225228,0.1354509480118773,0.4284546324590779
0.211,-0.5310629700484061,0.0290187043697327,-0.7468937977199717
0.212,0.6860279070670626,-0.0049331346508197,-0.5471497204879561
0.213,1.5184758958768538,-0.7905422625789273,0.3508736557324152
0.214,-0.4719774810993659,0.0403437675918564,0.7800607778496219
0.215,0.8645937850240886,0.7151307304638828,0.7041297437703578
0.216,0.5022108855868068,-0.4893889834537103,-1.829778095046844
0.217,-0.6925525072422298,-0.4146669168335122,-0.6874621901146939
0.218,-0.202805753970314,0.1399809733007268,-0.1625110498505125
0.219,0.9276210063864528,0.7536359454191036,0.6265487670436951
0.22,-0.3892550967539883,0.298485157118822,1.359476861627422
0.221,1.1508418529163429,0.7966478350173551,1.0441862906291115
0.222,0.0045671684046355,-0.4101368915446627,-0.6709459274912442
0.223,-0.9827288084642006,0.4275675272052142,-0.7865092574070023
0.224,1.3399100179198282,-0.5550509994962094,0.5242018144565891
0.225,-1.855890033433532,1.0548125751901394,0.9666053139024484
0.226,-1.6904452647427766,2.377206349201095,1.1531330138058118
0.227,2.482229470934604,-0.5822311512293065,-1.2008468956976217
0.228,-0.2382543475230166,-0.1134902870624763,-0.4877181128826783
0.229,-1.2098913874074144,-0.6184480028942837,1.3198614019403914
0.23,1.5893865820658664,-0.7882772499345027,-0.7699929947835525
0.231,-1.723275036075668,-2.1786447539240195,-0.7931090279965969
0.232,-0.3577347365310026,0.3777372490278696,-0.367204955024724
0.233,1.2847662613841122,-2.124284450457825,0.3079414746011238
0.234,-0.4142014032602314,-1.6238567599148674,0.7602614660808381
0.23500000000000001,0.5849197708485772,0.5634215845790619,-1.1843306330741716
0.23600000000000002,0.7319787876662247,-0.9807566234189692,-1.4765220070089011
0.23700000000000002,-1.1967567790575366,1.4397479715132535,-0.6891121327620925
0.23800000000000002,-0.5717627071243385,2.8572722765900487,0.9236731327711571
0.23900000000000002,1.6891718080908389,0.0063685779254851,1.489889675369768
0.24,-0.2960304253621512,0.5543615340013628,0.9121235342393668
0.241,0.5586640532324284,1.2517986233176368,-0.7485437403673703
0.242,0.8698449285473183,0.8713932522833719,-0.0799802451816536
0.243,-1.677324155476506,-1.150585870459188,-0.0651307613550659
0.244,0.7818714006787109,-0.9490697970428412,0.4169050339272873
0.245,0.5297760143128611,0.1671611250338239,1.248880195803323
0.246,-1.2335147837201448,-1.5785565070263723,-0.6445468451328659
0.247,0.1673796157919722,0.8781882902166464,-0.6247306972146187
0.248,0.6321935616412522,1.4850482244017489,1.3330609431195806
0.249,-1.4147129829805896,-1.1166340314386356,0.2848422775375429
0.25,-0.1581642844810575,-0.8449025660451215,-0.7171779939173326
0.251,-1.203317333690672,0.1467760112340011,-0.4448027679008502
0.252,-1.2912908615592793,0.5543615340013628,-0.8987558658785001
0.253,1.6208934432052449,-0.1700922525272763,0.5456510688727715
0.254,0.9801459407023576,-1.010201787796491,1.341327492506037
0.255,-0.2933981040587327,0.0018619032824544,-1.1892972971658309
0.256,1.5893865820658664,-1.7959510195995114,-1.091900172520921
0.257,-0.0229979603214188,2.078318082720303,-0.878939717960253
0.258,-1.3333135088287245,1.557505278377522,-0.0915298437134441
0.259,1.062868325047735,0.053933843458405,0.6001328485358536
0.26,-0.2815864059023675,0.5973967742454331,1.489889675369768
0.261,-0.3616764689443266,0.5272047329140845,0.3228077945771747
0.262,1.917630299060351,0.3664121858057458,-1.554102983735564
0.263,-0.5665115636011087,-0.1338754008622991,0.075181708271672
0.264,-1.161308185504834,-0.0931051732626535,0.9979710603524862
0.265,0.5573546421225228,0.6585287649990826,1.489889675369768
0.266,-1.262402822639712,0.2667983307426942,0.4845695186200953
0.267,0.3210126863263623,-0.521075809829838,-0.971387014662967
0.268,0.7293599654464135,0.8759232775722214,0.5308015850461836
0.269,-0.662355057212757,-0.1791523031049753,1.085451692963541
0.27,0.219904550107877,-2.5024481594934844,-0.1790273124739622
0.271,-0.3669276124675564,-1.177766022192285,-2.073986443011307
0.272,-1.3109860245422926,-0.115755299706901,-0.6742458127860415
0.273,0.1358727546525937,-1.1007789429276624,0.0784984297159326
0.274,0.4733228466672396,0.298485157118822,1.4865897900749707
0.275,-0.5271212376350819,1.0548125751901394,1.3809429521930674
0.276,0.0163923656446078,-0.1746222778161258,-2.135067993263983
0.277,1.5197988060703669,-0.0908401606182287,-1.1760809198371789
0.278,-0.3826810430372457,1.2631236865397604,-0.3606051844351295
0.279,-0.4903497338888664,0.7491059201302541,0.4746698627357032
0.28,2.230134084568754,0.6992989925987283,1.489889675369768
0.281,-0.3564253254210969,0.7808160971522007,0.2452099817010486
0.28200000000000003,0.2619271973773222,-1.6419768610702656,-0.6164809839776256
0.28300000000000003,0.5271571920930499,-0.2606694076584477,-0.3226396673954973
0.28400000000000003,-1.0089980251639568,0.1128008215676298,-0.04366467078942
0.28500000000000003,-0.867190151869539,0.2169680525653497,0.5142853224227341
0.28600000000000003,-1.1718104725512934,0.2848950812522735,1.489889675369768
0.28700000000000003,1.3635469133161655,-0.0185232105173683,-0.6428969024854672
0.28800000000000003,0.3315149733728218,0.0969457330566565,-0.6676460421964467
0.289,-1.0011145603373084,-0.2403076445044437,1.47504019154318
0.29,0.0557826916106346,0.2033779766988012,-0.2516584612584291
0.291,-0.6137718553101764,-0.7430003476918263,-0.946621038802524
0.292,-1.1258595919521313,-1.1347307819482149,0.9385394527472082
0.293,2.104079641844025,-1.1256940820163346,-1.6317007966116903
0.294,0.9958993712720468,-1.86614306093086,1.097001291495331
0.295,-1.2400888374368872,1.0955594521439662,1.273646171663766
0.296,1.170537015899356,0.9687420947019988,-1.4071907435192317
0.297,0.5127131726332663,-1.5740264817375231,-1.6531500510278727
0.298,-1.4777402043429535,0.9483803315479948,-1.1727810345423813
0.299,0.7989477414419132,1.9968009781668303,-0.0172487522815785
0.3,0.0255852415811617,0.6155168754008311,1.489889675369768
0.301,0.0085089008179596,0.2192330652097744,1.489889675369768
0.302,0.8685355174374128,2.2141721400941505,0.2237607272848663
0.303,-0.4798474468424069,-0.2697294582361467,-0.0634808187076671
0.304,0.4483765401609965,-1.7166989276904636,-0.5042175393566646
0.305,-0.1831105909873006,-0.077273435397499,1.489889675369768
0.306,-0.6479110377529734,0.0358137423030069,-0.4150869640982113
0.307,0.559973464342334,0.6879739293766045,-0.931771554975936
0.308,-0.4168202254800426,-1.0260568763074642,1.3330609431195806
0.309,0.1319310222392696,-0.5052440719646836,0.2072444646614168
0.31,-0.4640940162727177,-1.320415117499407,-0.5487996631353547
0.311,-0.620345909026919,-1.1437908325259138,-0.4563523664326407
0.312,-0.189671145620436,0.7921411603743245,-0.1724275418843676
0.313,-1.0168679909069978,0.4479292903592182,0.3756227954433948
0.314,0.8934818239436559,-1.4313773864304011,1.2472302531559245
0.315,0.7910642766152649,-0.416931929477937,-0.7122281659751368
0.316,-0.5560092765546492,0.6879739293766045,-2.239064888498488
0.317,0.65057931351436,0.7559009580635283,-0.7072615018834776
0.318,0.6019961116117792,1.023102398168193,0.3376572784037626
0.319,-0.7214405461617971,-0.2969096099692438,1.007870716236878
0.32,2.001675593599242,0.4207724892719399,1.050786061218706
0.321,-0.3656182013576508,1.2155817716526596,0.144529807910805
0.322,-0.4207619578933668,0.3845322869611439,-1.0671341966604782
0.323,0.3630218345122003,-0.3648366386561676,-0.7716429374309512
0.324,-0.9748588427211596,0.4230375019163647,0.6166322750098397
0.325,0.3748470317521727,-0.2448376697932932,1.2917955407851511
0.326,-0.2933981040587327,0.1128008215676298,0.8824077304367278
0.327,-1.292613771752792,0.7491059201302541,-1.1199660336761612
0.328,-0.3222861429782999,0.7219257683971569,0.3327074504615668
0.329,0.7227859117296708,-0.482593945520436,0.9847546830238336
0.33,-1.685194121219547,-1.1098389935053614,-0.2235926001031889
0.331,0.2632366084872278,-3.0187309385474155,-0.4299364479247992
0.332,0.6230006857046982,0.4841694926700142,-1.0555845981286875
0.333,-0.9302173732319032,-0.0275832610950673,-0.9251717843863416
0.334,1.2795151178608823,-1.297788341700978,1.2158645067058866
0.335,1.0405408407613033,0.7830811097966254,0.5786667579702078
0.336,-0.4443988532897043,0.0041269159268792,-1.1166493122319006
0.337,0.3748470317521727,0.4728444294478904,-0.7799094868174078
0.338,-0.2684517975524895,2.488168618132089,-0.0915298437134441
0.339,-0.5402423469013526,2.6149859755740565,0.0669319950346786
0.34,0.8554009090875346,-0.2697294582361467,1.489889675369768
0.341,0.8199523155348322,-0.2697294582361467,0.8279427869231091
0.342,0.7674408803025345,0.4547243282924924,-1.3378594800295622
0.343,0.7976383303320075,-1.0124668004409156,0.5753668726754106
0.34400000000000003,-0.9183921759919308,-0.9105645820876204,0.2996917613641308
0.34500000000000003,-0.1043299390552472,-0.4010768409669636,0.674413939967719
0.34600000000000003,-0.7188217239419857,-1.0260568763074642,1.092051463553135
0.34700000000000003,-0.2632006540292598,1.2857738129840082,-2.012921728908094
0.34800000000000003,-0.1936128780337602,0.692503954665454,0.6645142840833269
0.34900000000000003,-0.5192377728084338,0.4456642777147934,0.8493920413392915
0.35000000000000003,1.0956845972970193,-0.4939190087425598,0.2022946367192206
0.35100000000000003,-1.3792643894278869,0.2916901191855477,0.2072444646614168
0.352,-0.9669753778945114,-0.869794354487975,-1.063834311365681
0.353,0.6925884617001979,-0.8811194177100988,0.0669319950346786
0.354,-0.6150947655036892,-0.3444515248563448,0.0735317656242734
0.355,1.0313479648247494,-0.5143041225423826,1.0276700280056617
0.356,1.0103433907318304,-0.7067601453810304,-0.8409742009206208
0.357,0.9709530647658036,-0.3037046479025181,-1.8429944723754963
0.358,0.4890762772369287,-0.482593945520436,-0.0865800157712483
0.359,-1.296542005082509,1.1091495280105148,-0.1014463357472993
0.36,1.1350749232630462,1.530325126644425,0.5109854371279369
0.361,-0.2225009169533274,0.7762860718633512,1.489889675369768
0.362,-0.5244889163316634,0.6109868501119817,0.7519949166943817
0.363,1.4449463874680302,0.2373531663651725,-0.6032646066489732
0.364,-0.0400743010846209,0.128655910078603,-0.5504496057827533
0.365,-1.127169003062037,-0.6184480028942837,0.302991646658928
0.366,0.2566760538540925,0.94611531890357,0.9897045109660296
0.367,0.1582002389390256,-0.4191969421223617,0.3343573931089654
0.368,-0.3341113402182722,-0.7928072752233521,-1.4220402273458197
0.369,1.0313479648247494,0.0607288813916792,1.0821518076687435
0.37,-1.966191045588571,-0.7112901706698799,0.9170733621815624
0.371,-0.3157255883451645,-0.5233408224742628,-0.411787078803414
0.372,0.0689038008769053,-1.5128944909838735,-0.213692944218797
0.373,-0.6400410720099324,0.6494687144213837,-1.2965940776951328
0.374,1.3819326651892732,-0.3421865122119201,-0.1377619101395328
0.375,0.1358727546525937,-0.2040674421936476,0.6661642267307256
0.376,-0.9039481565321472,1.2472685980287872,-1.3081436762269232
0.377,0.5967449680885495,0.4909645306032885,-1.2685282165398926
0.378,0.1411238981758235,-1.0396469521740126,-0.2368089774318412
0.379,-0.6571039136895274,0.522674707625235,0.9649553712550496
0.38,1.2834433511905992,-0.6365681040496817,1.489889675369768
0.381,1.0037828360986951,-0.0614183468865257,0.2402601537588528
0.382,-0.0321908362579727,1.1634864808308902,-0.8839063820519122
0.383,0.3328243844827275,0.1762211756115229,0.2798756134458837
0.384,0.3906004623218619,-1.0464186394614683,-0.14106179543433
0.385,0.0636526573536756,-0.4033418536113884,0.9319396821576136
0.386,-1.1875639031209826,0.730985818974856,0.2765757281510864
0.387,0.1844559565551743,0.8736582649277967,-0.6065644919437704
0.388,-0.5520675441413251,0.6607937776435074,-0.2401088627266386
0.389,-0.6781219868660535,0.1241258847897535,0.3195079092823775
0.39,0.3157615428031327,-0.079515097396105,0.5324515276935826
0.391,-1.6838847101096417,-0.625243040827558,-0.4315863905721978
0.392,0.5809915375188603,0.364147173161321,-0.6197808692724229
0.393,-0.7542703174946884,-1.3725104083211763,-0.743577076275711
0.394,0.7582480043659807,-1.2140062245030812,0.4730199200883046
0.395,2.5885887506763186,-1.9272750516845092,1.0293199706530602
0.396,-1.7429701990586812,-0.4327636673430914,-1.3791248823639914
0.397,-0.9998051492274028,1.174811544053014,-1.5953683860699934
0.398,1.0720477019006818,0.0041269159268792,-0.299523634182453
0.399,-1.3070442921289689,2.32286939638072,0.144529807910805
0.4,0.3499007252459296,1.7726114276604172,1.3578269189800234
0.401,2.165797452096484,-0.6229780281831332,1.489889675369768
0.402,-0.147661997434598,1.8201766931933367,-0.5867651801749867
0.403,0.2579854649639981,-2.2012715297224483,-1.3329096520873662
0.404,0.2711200733138761,-0.5754361132960322,0.0735317656242734
0.405,-0.7976023758740394,-0.5369308983408113,1.2406304825663297
0.406,0.2921246474067951,-0.0614183468865257,1.489889675369768
0.40700000000000003,-0.2973398364720568,0.9234651924593223,-0.9895532199338152
0.40800000000000003,-0.7976023758740394,1.1997266831416862,-1.4203902846984209
0.40900000000000003,0.0899218740534316,0.6970339799543035,1.4007422639618512
0.41000000000000003,-0.1384691214980442,-0.813192389023175,0.4878862400643559
0.41100000000000003,-2.1683938189419347,-0.7407353350474016,0.1907450381874303
0.41200000000000003,0.322322097436268,-0.2538743697251734,-1.4418563752640663
0.41300000000000003,0.7713691136322514,-0.1768872904605506,0.0042005021346038
0.41400000000000003,-0.5888255488039333,-1.1437908325259138,1.2026649655266977
0.41500000000000004,1.863809452718148,-0.5097740972535331,0.799876925767869
0.41600000000000004,1.190232178882369,-1.311355066921708,-0.0849300731238497
0.417,-0.8015441082873634,0.4660493915146162,-1.958439949245012
0.418,0.5534129097091987,0.8736582649277967,-1.1182992548792994
0.419,0.0111412221213781,0.6902389420210293,0.1461797505582036
0.42,-1.165249917918158,1.4714581485352003,0.9269730180659546
0.421,2.6214185220092103,-0.2719944708805715,1.3132616313507968
0.422,-1.548650890531966,1.795261554104665,0.075181708271672
0.423,-0.0374419797812024,-0.3580416007228934,-0.0486144987316162
0.424,1.7403738322132307,-0.0908401606182287,-0.2879740356506625
0.425,-2.1329317263056247,0.4977595685365628,0.2765757281510864
0.426,-0.0282491038446485,-0.2923795846803943,0.9088236489445696
0.427,-0.1673571604176114,-0.2787895088138457,0.2815423922427456
0.428,-1.292613771752792,-0.0366433116727663,-0.5273335725697089
0.429,0.8869212693105204,0.8170329488171779,0.6859635384995093
0.43,-2.0160836586010573,-0.473533894942737,0.4548705509669195
0.431,0.2304068371543365,-1.5604597565167937,0.075181708271672
0.432,-0.7555797286045941,-1.3226801301438316,-0.2186427721609929
0.433,-0.9512219473248222,0.730985818974856,-1.3312597094399674
0.434,2.071263369594741,-1.150585870459188,-0.5537494910775504
0.435,-0.3432907170712189,0.656263752354658,0.6678141693781242
0.436,-0.4693451597959474,1.229171847519208,0.842792270749697
0.437,1.6077588348553666,-0.8177224143120245,-0.8558405208966718
0.438,-0.4864215005591495,-0.44635374320964,-0.991203162581214
0.439,-0.6925525072422298,1.0910294268551168,-0.7650431668413568
0.44,2.029240722325296,1.2721837371174596,0.8279427869231091
0.441,-0.3971250624970293,-1.4155222979194275,1.489889675369768
0.442,1.2834433511905992,0.081113995191502,1.489889675369768
0.443,0.8462215322345881,0.5158796696919608,-0.77329288007835
0.444,-0.9617242343712816,-1.526484566850422,-1.0737339672500723
0.445,-0.4352059773531504,-1.2502230761680582,-0.6461967877802645
0.446,-0.6400410720099324,1.940175662056212,0.8328926148653053
0.447,0.0925406962732428,0.8487431258391245,1.489889675369768
0.448,-0.2947210142522455,-0.849432591333971,-0.7221278218595287
0.449,0.4746322577771452,0.2350881537207477,0.943489280689404
0.45,-0.9289079621219976,0.8826949648596769,0.6678141693781242
0.451,-0.0243208705149317,-0.0185232105173683,0.3558234836746111
0.452,-0.6741802544527294,-1.902383263241656,-0.6412301236886052
0.453,-1.3070442921289689,-0.1972724042603734,-0.1559112792609179
0.454,0.6952207830036164,-1.404197234697304,-0.314389954158504
0.455,2.148734610416889,-0.9581064969747216,0.5209019291617919
0.456,-0.3682370235774621,-1.0464186394614683,-0.3127400115111055
0.457,0.2002093871248636,1.6707092093071223,-2.199449428811457
0.458,1.1679046945959377,-0.44635374320964,-0.5884151228223853
0.459,-2.3561525728355144,0.6857089167321798,0.8196762375366528
0.46,1.179716392752303,0.9121401292371988,0.674413939967719
0.461,1.4318252782017595,0.8238279867504521,0.9137734768867652
0.462,-1.8243831722941533,1.6390223829309944,0.699179915828162
0.463,1.3031385141736125,0.9212001798148978,-0.6346303530990106
0.464,-0.0006839751185942,-0.3399448502133141,-0.5240336872749117
0.465,-0.1253345131481661,-0.8358425154674225,0.8411423281022984
0.466,0.9236792739731288,-0.5324008730519618,0.4317545177538752
0.467,-1.9215360770157075,-0.1723572651717011,0.2534765310875051
0.468,-0.1923034669238545,0.6177585373994371,-0.0684306466498631
0.46900000000000003,1.8454237008450405,-0.425991980055636,0.5836165859124037
0.47000000000000003,-0.8474949888865256,0.2056429893432259,-0.0387148428472242
0.47100000000000003,-1.347757528288508,-1.2887282911232791,-0.4084871935086166
0.47200000000000003,0.3722147104487542,-0.5007140466758341,-0.6990117886464844
0.47300000000000003,-2.084362023486652,0.128655910078603,-0.0519143840264135
0.47400000000000003,0.3026269344532546,-1.0735987911945652,0.1544294637951967
0.47500000000000003,2.023989578802066,-1.0260568763074642,0.5572175035540256
0.47600000000000003,-1.0772763900495506,0.862333201705673,0.3657231395590028
0.47700000000000004,1.258497044684356,-1.422317335852702,-1.4369065473218705
0.47800000000000004,1.3189054438269092,2.1485101240516515,-0.6725958701386429
0.47900000000000004,-2.1736449624651644,1.2087867337193852,0.0025505594872052
0.48,0.6164401310715629,-0.8765893924212492,0.4944860106539503
0.481,1.009033979621925,-0.6229780281831332,0.9121235342393668
0.482,-0.4837891792557311,1.7137444495511929,-0.0601640972634067
0.483,1.8703700073512837,-0.1927423789715239,-0.3820712750007751
0.484,-0.5822649941707979,-0.9286846832430188,0.3393072210511612
0.485,-1.4370404672670214,0.2667983307426942,0.3558234836746111
0.486,0.5875520921519957,0.5588915592902123,0.8229761228314499
0.487,-0.5376235246815414,0.5362414328459648,0.6479980214598775
0.488,-1.245339980960117,1.5348551519332747,-0.9647872440733724
0.489,1.182348714055721,0.6177585373994371,1.3446273778008342
0.49,1.1770975705324913,-1.1347307819482149,0.4317545177538752
0.491,-1.1993891003609551,-0.5958212270958549,-0.8426241435680196
0.492,0.977513619398939,-1.9069132885305056,-1.209096608934615
0.493,-0.8579972759329851,-0.9943466992855176,-0.2351590347844425
0.494,-1.4646190950766829,0.2011129640543764,0.1181138894029635
0.495,2.104079641844025,-0.9490697970428412,0.8576417545762849
0.496,-0.1384691214980442,-0.482593945520436,0.4053385992460336
0.497,0.5166414059629832,0.241883191654022,-1.4781719496563
0.498,0.6190589532913742,1.3219906646489854,-1.096850000463117
0.499,-1.4843142580596962,1.695624348395795,-0.0915298437134441
0.5,0.0872895527500131,1.4125678197801568,0.8708581319049372
0.501,1.8743117397646076,0.7672260212856521,0.539051298283177
0.502,1.53949396905338,0.429832539849639,1.443674445093143
0.503,1.2834433511905992,-0.878854405065674,0.1461797505582036
0.504,-1.711463337919303,0.3143402456297953,-1.1249158616183572
0.505,-0.0124956732749593,-0.9671665475524208,0.0900480282477229
0.506,0.5416012115528335,-0.0071981472952445,0.3822225660329893
0.507,-2.667333448150404,-0.1134902870624763,0.4928360680065517
0.508,1.2663805095110043,-0.4101368915446627,0.032266363289844
0.509,0.8540914979776291,-0.5346658856963866,-0.0139488669867812
0.51,-2.35746198394542,2.571950735329986,0.2765757281510864
0.511,1.66816723399792,-0.294644597324819,1.0557358891609017
0.512,-0.8986970130089175,-2.108429361946852,0.210544349956214
0.513,-1.3963407301910888,0.7491059201302541,-1.2421122980320507
0.514,1.739064421103325,-1.1369957945926397,-0.0469645560842176
0.515,0.007199489708054,-1.5060994530505991,-0.0601640972634067
0.516,-0.3117838559318404,0.9212001798148978,0.5242018144565891
0.517,2.345686240247023,0.3550871225836221,-0.3540054138455349
0.518,0.2960663798201192,-2.486593070982511,-2.546105746259805
0.519,-1.9254778094290317,0.6766488661544808,-0.1146458769264884
0.52,1.3569728595994228,1.765816389727143,0.4961359533013489
0.521,0.1476844528089588,0.6245535753327115,1.489889675369768
0.522,-1.0943392317291456,0.2464132169428715,-0.1674777139421716
0.523,1.473834426387597,2.094173171231276,-0.6346303530990106
0.524,-0.9893028621809432,0.5022895938254123,0.7784108352022232
0.525,-0.5520675441413251,-0.3263547743467657,0.0355662485846412
0.526,0.9328721499096826,0.8147679361727531,0.4251547471642807
0.527,-2.0488999308503417,0.4388925904273379,0.5076855518331396
0.528,0.2789900390569171,0.4162424639830904,-0.6874621901146939
0.529,1.2099273418653826,-1.195886123347683,1.0838017503161423
0.53,-0.7135705804187561,-0.0343782990283416,-0.170777599236969
0.531,0.8252034590580618,-1.3453302565880791,-1.4088406861666305
0.532,0.0846707305302019,-0.5346658856963866,0.0817983150107298
0.533,-2.438874957180892,-1.13246576930379,-0.3358560447241497
0.534,0.8055082960750485,-0.7294102718252778,0.5885832500040629
0.535,1.5788842950194066,-1.526484566850422,1.329761057824783
0.536,-1.1324201465852666,0.5022895938254123,-0.4844182275878809
0.537,0.6124983986582387,0.9845971832129722,-2.012921728908094
0.538,0.9053070211836284,-0.1746222778161258,-0.745243855072573
0.539,-1.7652976833451133,1.0208373855237682,0.1346133158769496
0.54,0.7818714006787109,1.505409987555753,0.7652112940230343
0.541,1.3530446262697058,-0.1452004640844229,1.2389805399189309
0.542,-1.0995903752523752,0.4615193662257667,0.7123794570073508
0.543,2.093577354797566,0.5611565719346371,-1.4963381549271484
0.544,-0.1988640215569899,-0.9671665475524208,-0.3837212176481737
0.545,-0.6492339479464864,-1.5966766081817705,0.4102884271882294
0.546,0.6978396052234278,0.1943179261211021,0.8626084186679441
0.547,-1.318869489368941,1.2857738129840082,1.1300169805927676
0.548,-1.3897666764743464,0.9665004327033928,-0.8855563246993109
0.549,1.3189054438269092,-0.652423192560655,-0.1063961636894952
0.55,-0.3616764689443266,0.9891272085018216,1.0557358891609017
0.551,-1.8571994445434368,-0.2584043950140229,0.4961359533013489
0.552,0.8343963349946156,-1.354390307165778,-1.2718281018346898
0.553,-1.518439941418886,0.2396181790095972,-0.4827682849404822
0.554,-1.2308959615003334,-1.1188990440830604,0.755294801989179
0.555,2.3299193105937266,-2.205801555011298,0.5456510688727715
0.556,0.8711678387408313,-1.037381939529588,0.529151642398785
0.557,0.8659166952176015,0.7966478350173551,-1.968339605129404
0.558,0.4943274207601585,1.4329529335799795,-1.5904185581277976
0.559,-0.3656182013576508,1.5257951013555755,0.2765757281510864
0.56,-2.4743235507335943,1.0638492751220197,0.9236731327711571
0.561,1.1679046945959377,-0.9309496958874434,1.489889675369768
0.562,-0.0990787955320174,2.1937870262943275,0.6612143987885297
0.5630000000000001,0.1949582436016338,-0.2787895088138457,-1.0357684502104405
0.5640000000000001,0.944697347149655,-0.1882123536826744,0.2088944073088154
0.5650000000000001,-0.2999721577754753,-0.6728083063604778,0.2452099817010486
0.5660000000000001,0.1227381463027157,-1.2366330003015098,0.5159352650701327
0.5670000000000001,1.1692141057058432,-0.473533894942737,1.489889675369768
0.5680000000000001,-2.2931253514731504,0.9302602303925968,-1.3263098814977714
0.5690000000000001,-0.0754419001356799,0.4117124386942409,-0.2070931736292024
0.5700000000000001,1.8559259878914995,-0.8086623637343255,0.7189792275969457
0.5710000000000001,-1.0562583168730244,-0.9920816866410928,0.302991646658928
0.5720000000000001,-0.3485418605944486,-0.7905422625789273,-0.4150869640982113
0.5730000000000001,-0.3774298995140159,0.3822672743167191,-0.5240336872749117
0.5740000000000001,-0.1200833696249364,1.2925688509172824,-0.3804213323533764
0.5750000000000001,1.083872899140654,-0.60712293967216,0.9500890512789988
0.5760000000000001,0.0584015138304458,-0.2403076445044437,1.3050119181138031
0.577,1.0720477019006818,0.2781000433189993,-0.8079585118231848
0.578,0.8330869238847102,-1.628386785203717,-2.012921728908094
0.579,-0.9315267843418088,1.3310507152266844,-0.9631373014259738
0.58,0.2264651047410124,1.8835736965914116,0.403688656598635
0.581,0.0177017767545135,-0.2629344203028724,1.3627767469222194
0.582,0.2159628176945528,0.110535808923205,1.489889675369768
0.583,1.3569728595994228,0.5498315087125133,-0.4563523664326407
0.584,-0.7135705804187561,1.2450035853843624,-1.8182284965150537
0.585,-0.5862067265841221,-0.3104996858357923,0.7652112940230343
0.586,0.7333016978597375,-0.6841333695826015,0.2633761869718972
0.587,-1.1915056355343068,0.1150658342120545,1.489889675369768
0.588,-0.3590576467245154,0.2939551318299725,0.2072444646614168
0.589,0.5494711772958745,0.0018619032824544,-2.232465117908893
0.59,-0.5743815293441497,-0.9852866487078188,0.572066987380613
0.591,0.219904550107877,0.5543615340013628,1.489889675369768
0.592,0.020334098057932,-1.879733136797408,0.2914420481271373
0.593,-0.1739177150507468,-2.192211479144749,-1.149665001329337
0.594,0.9144863980365748,-0.7769755373581977,-0.5124840887431212
0.595,-0.3314790189148538,-0.6592182304939294,1.489889675369768
0.596,0.4523047734907133,0.3120752329853705,0.8394923854548998
0.597,-0.2356220262195981,0.6698538282212064,-2.6600191335281647
0.598,-0.4181431356735556,1.0434875119680156,-1.3543589065035484
0.599,0.5836103597386716,0.2237630904986239,0.5555675609066265
0.6,-0.3629858800542323,0.6222885626882866,0.2897921054797387
0.601,1.3911120420422196,1.4533380473798023,1.489889675369768
0.602,0.8120823497917912,1.5756253795329205,1.0392364626869155
0.603,-0.756902638798107,-0.050093283664402,-0.5405499498983614
0.604,1.2453759354180851,-1.4766776393188965,-0.931771554975936
0.605,0.1844559565551743,-0.8607576545560949,-0.3837212176481737
0.606,-1.190196224424401,0.0743189572582277,1.2934454834325495
0.607,0.0111412221213781,0.1988479514099516,1.4073588707009093
0.608,-0.7739654804777019,-0.3965468156781142,-1.1859805757215702
0.609,-0.3853133643406642,0.0403437675918564,-0.4844182275878809
0.61,0.117487002779486,0.0675239193249535,0.6430481935176813
0.611,-0.9459708038015924,1.2382085474510882,-0.1839771404161581
0.612,-1.1718104725512934,0.26000329280942,0.0933479135425205
0.613,-0.2855281383156917,-0.5324008730519618,-0.3275894953376933
0.614,-0.3196673207584887,0.2532082548761458,0.0735317656242734
0.615,0.6663327440840492,-0.7067601453810304,0.6413982508702827
0.616,1.3530446262697058,-2.701722570911225,0.8890075010263223
0.617,-0.9249662297086734,0.090174045769201,-1.106749656347509
0.618,1.016903945364966,-0.6026162650291292,-2.4437587936726994
0.619,0.5481617661859689,0.9778021452796978,-0.5669490322567398
0.62,-1.2952325939726037,1.4125678197801568,0.8592916972236835
0.621,0.2080928519515119,-0.1610555525953961,0.6843135958521107
0.622,1.1140703491701271,1.3084239394282555,1.489889675369768
0.623,-1.0011145603373084,1.2903038382728578,-0.5685989749041384
0.624,0.6295612403378337,-0.5890261891625806,-1.214046436876811
0.625,-0.0925047418152748,-0.482593945520436,0.8229761228314499
0.626,0.0675943897669997,-0.1021652238403525,-0.103096278394698
0.627,0.7753108460455755,0.4253025145607894,1.489889675369768
0.628,-1.2190842633439685,1.3944710692705775,-0.04366467078942
0.629,-0.3170349994550701,-0.2833195341026953,-1.814928611220256
0.63,-0.2356220262195981,-1.0509486647503177,1.4403745597983453
0.631,0.4207979123513348,-1.6713986748019685,0.0124670515210602
0.632,-0.4982331987155147,-0.4780639202315865,-0.2516584612584291
0.633,-0.5271212376350819,-0.7588554362027997,0.0124670515210602
0.634,-0.1529131409578278,0.1716911503226734,-0.966437186720771
0.635,-1.1232272706487128,0.0992107457010812,0.1412130864665444
0.636,1.280824528970788,-0.3852217524559904,1.1745991043714572
0.637,1.091742864883695,0.4049174007609666,-0.1047462210420966
0.638,-0.7188217239419857,1.00271728436837,-1.7307310277545356
0.639,0.9197375415598046,0.4683144041590409,-0.5785154669379934
0.64,0.7214765006197652,0.5520965213569381,1.2274141052376772
0.641,-0.9446613926916868,0.9936572337906712,0.1048975120743108
0.642,0.5192737272664016,0.1829928628989784,0.8526919266340891
0.643,0.7556156830625622,-0.2380426318600189,0.9302897395102152
0.644,0.3328243844827275,-0.0366433116727663,-1.235512527442456
0.645,0.6466375811010359,-0.2810545214582705,-0.3275894953376933
0.646,-0.675489665562635,-1.0690687659057156,0.978154912434239
0.647,-0.2146174521266791,0.3981223628276923,0.3343573931089654
0.648,-1.0050562927506326,0.9234651924593223,1.0821518076687435
0.649,0.0426480832607566,0.2577382801649953,-0.7947589706439955
0.65,0.7136065348767242,-0.1180203123513258,0.0306164206424453
0.651,-1.5604625886883312,1.3106889520726803,1.1019679555869903
0.652,0.041338672150851,-1.8231311713326084,0.4878862400643559
0.653,0.8317775127748045,-1.854817997708736,-1.2223129862632671
0.654,-1.6602478147133035,0.7536359454191036,-0.5471497204879561
0.655,0.5192737272664016,-0.577701125940457,-0.035414957552427
0.656,0.4313001993977943,-1.6827237380240925,0.5142853224227341
0.657,-0.2408866688264352,0.0856440204803515,1.1481831858636156
0.658,0.2474831779175386,0.7717560465745016,-1.734047749198796
0.659,0.2724294844237818,0.4049174007609666,-2.60883723915988
0.66,-0.8973876018990118,1.1340646670991872,0.2600763016770999
0.661,0.5389688902494151,1.661672509375242,1.0012709456472833
0.662,0.8252034590580618,0.6132518627564064,1.489889675369768
0.663,0.4641299707306857,0.8396830752614255,1.2191643920006838
0.664,0.6978396052234278,0.0018619032824544,-0.3160398968059029
0.665,-0.0833253649623282,-1.037381939529588,-1.009352531702599
0.666,-0.3012815688853809,0.280365055963424,0.4482539442278617
0.667,0.0387063508474325,-0.3127646984802171,0.4944860106539503
0.668,-1.0615094603962545,-1.6804587253796677,-0.8558405208966718
0.669,-0.1279668344515847,0.3324603467851933,-0.1773773698265634
0.67,-0.6925525072422298,0.2260281031430487,0.6512979067546747
0.671,0.275048306643593,0.5317114075571153,0.3178579666349789
0.672,-1.5079376543724266,-0.8018673258010511,-0.0254984655185719
0.673,-0.6610456461028514,0.5883367236677342,-0.4679019649644312
0.674,0.0715361221803238,-0.1995374169047981,-0.1592111645557151
0.675,0.3604030122923891,-1.354390307165778,-0.0023992684549909
0.676,1.765333637803081,-1.2706081899678812,0.596832963241056
0.677,0.2185951389979714,0.9030800786594998,-0.301190412979315
0.678,0.1529355963321886,0.2237630904986239,-1.664699649559663
0.679,0.6164401310715629,-1.7823609437329628,-0.7782595441700092
0.68,-0.3616764689443266,0.3618821605168963,0.3195079092823775
0.681,-0.3564253254210969,1.0910294268551168,0.1791954396556396
0.682,1.1377072445664649,1.4148328324245816,1.425508239822294
0.683,-0.5730721182342441,-0.2085974674824971,0.5225518718091905
0.684,0.3577706909889706,1.6639375220196668,-1.392341259692644
0.685,0.9171187193399932,0.4320975524940637,-0.1476615660239246
0.686,-1.0890880882059155,-0.079515097396105,1.489889675369768
0.687,-0.8737507065026743,0.4207724892719399,1.01777037212127
0.6880000000000001,0.1923394213818226,0.2169680525653497,0.0718818229768748
0.6890000000000001,-0.5468164006180952,-0.106695249129202,-1.5706192463590138
0.6900000000000001,-0.2960304253621512,-0.0908401606182287,1.161382727042805
0.6910000000000001,1.0589265926344111,-0.4690038696538875,1.0573858318083007
0.6920000000000001,-1.2807885745128198,-0.7362053097585521,0.1725788329165818
0.6930000000000001,-0.0400743010846209,-1.6080016714038945,-1.8627937841442803
0.6940000000000001,0.2002093871248636,0.1513060365228506,-1.1546316654209965
0.6950000000000001,-0.3039003911051922,-1.5649897818056426,0.8956241077653802
0.6960000000000001,0.787136043285548,-0.416931929477937,0.9170733621815624
0.6970000000000001,0.457555917013943,0.429832539849639,0.7519949166943817
0.6980000000000001,-0.6400410720099324,1.682034272529246,-2.037670868619073
0.6990000000000001,0.9026746998802098,0.6358786385548352,-1.6828658548305115
0.7000000000000001,0.2015187982347692,0.5181446823363856,0.6777138252625162
0.7010000000000001,-1.3359323310485358,0.5204096949808104,1.2505301384507217
0.7020000000000001,2.62666966553244,0.3369903720740428,0.7404453181625914
0.7030000000000001,0.1030429833197023,-0.1497304893732723,0.2996917613641308
0.704,-0.5468164006180952,-1.70537386446834,-0.0997963930999007
0.705,1.9465183379799185,-0.2516327077265675,-0.5157839740379184
0.706,-1.4829913478661834,-0.1678272398828516,0.6942300878859661
0.707,-0.4614616949692992,1.3355807405155338,0.5027357238909435
0.708,-0.3800622208174344,1.2133167590082348,-0.5471497204879561
0.709,-1.6694406906498576,0.1490410238784258,0.0916979708951215
0.71,0.2094022630614175,0.5838066983788847,0.403688656598635
0.711,0.8330869238847102,0.1037407709899307,0.674413939967719
0.712,-1.253209946703158,-1.5060994530505991,0.6859635384995093
0.713,0.2855505936900525,-1.9046482758860808,-0.6362802957464094
0.714,0.1726442583988092,-0.2584043950140229,-0.6445468451328659
0.715,-2.4323009034641494,-0.643363141982956,-0.0568642119686093
0.716,2.248519836441861,-2.242041757322094,-0.299523634182453
0.717,0.9932670499686284,0.6789138787989055,1.1069177835291866
0.718,2.589898161786224,0.5045546064698371,-0.54219989254576
0.719,-0.5757044395376626,-0.2742594835249962,-1.80997878327806
0.72,-1.6497455276668445,3.1267387293391384,-0.0321150722576297
0.721,1.8349214137985803,1.539385177222124,0.1048975120743108
0.722,-0.7844677675241614,1.1884016199195624,1.0573858318083007
0.723,0.7713691136322514,0.7694910339300768,1.489889675369768
0.724,1.6891718080908389,1.201991695786111,-0.8921560952889055
0.725,-1.6654989582365334,-1.3272101554326812,-0.5735656389957976
0.726,0.5245248707896314,-0.3399448502133141,0.212211128753076
0.727,-0.1568413742875446,-1.0237918636630394,0.755294801989179
0.728,-1.4186547153939133,-0.6750733190049025,1.489889675369768
0.729,0.1608190611588368,0.835153049972576,-0.9070055791154932
0.73,0.8094500284883727,-0.011728172584094,-1.3593255705952076
0.731,-1.1442318447416318,0.8034428729506293,0.9831047403764348
0.732,-0.2592589216159356,-1.3045600289884336,0.8147264095944569
0.733,-0.0754419001356799,0.1377159606563021,0.8279427869231091
0.734,-1.6326826859872494,-0.041033233086703,-0.6164809839776256
0.735,-0.1253345131481661,0.3550871225836221,-0.5933649507645813
0.736,0.8750960720705481,0.3573521352280468,0.4928360680065517
0.737,0.4050444817816456,-0.7226152338920036,-0.1311621395499381
0.738,0.4838251337136991,-0.586761176518156,-2.0079550648164344
0.739,0.8606520526107645,-0.2267175686378952,-0.5537494910775504
0.74,-1.2820979856227253,0.5453014834236638,0.0916979708951215
0.741,0.5205831383763073,-0.011728172584094,1.3033451393169413
0.742,1.7167504359005004,0.2758350306745745,1.0722521517843515
0.743,-1.058890638176443,0.9868621958573968,0.2765757281510864
0.744,1.8362308249084864,0.8215629741060274,-0.2632080597902195
0.745,-0.0203791381016076,-1.3702453956767515,-1.0902502298735224
0.746,-2.4191797941978788,1.437482958868829,0.4218548618694835
0.747,1.4081883828054218,-0.4916539960981351,0.4020387139512364
0.748,-0.7884094999374855,0.6358786385548352,0.7008298584755606
0.749,-2.085671434596557,-0.7837472246456532,0.3690230248538004
0.75,2.62666966553244,0.6245535753327115,-0.2202927148083915
0.751,0.3512101363558351,0.7626959959968026,0.2963918760693332
0.752,-2.3010088162997984,-0.0321132863839168,0.099947684132115
0.753,2.2380175493954018,-2.2578968458330677,-0.406837250861218
0.754,-2.4756329618435005,-3.041381064991663,-0.5042175393566646
0.755,-0.8606295972364036,1.437482958868829,-0.14106179543433
0.756,2.62666966553244,-1.902383263241656,0.0504325685606924
0.757,-1.207259066103996,-0.4056068662558132,0.2518265884401065
0.758,0.2868735038835653,1.0344274613903166,-0.9119554070576892
0.759,1.7758359248495406,0.280365055963424,-1.256978618008102
0.76,-2.415238061784555,-0.2244525559934704,-0.045314613436819
0.761,0.2986852020399305,2.556095646819013,1.3314110004721815
0.762,1.4830273023241514,-0.2923795846803943,0.7503449740469831
0.763,-1.8335760482307075,0.0697889319693782,0.5175852077175314
0.764,1.983289841726134,-0.3874867651004152,-0.7617432815465593
0.765,1.773203603546122,-1.037381939529588,0.0570323391502869
0.766,-2.0909225781197867,-0.8199874269564492,0.4020387139512364
0.767,1.4410181541383134,-0.106695249129202,0.0570323391502869
0.768,-0.3669276124675564,1.10688451536609,0.9979710603524862
0.769,-2.584611063805027,0.1739561629670981,-0.7237777645069273
0.77,1.770584781326311,-0.4508837684984895,0.3294075651667695
0.771,0.1266798787160399,1.079704363632993,1.050786061218706
0.772,-1.995065585424531,-0.0275832610950673,-0.4547024237852421
0.773,1.4501975309912598,-0.0704783974642248,-0.5603492616671452
0.774,-1.960926402981734,0.3754722363834448,-0.3028403556267136
0.775,-0.867190151869539,-2.160524652768621,0.4268046898116793
0.776,2.624037344229021,-1.4155222979194275,1.2538300237455189
0.777,0.2290974260444308,0.0584638687472545,0.0850982003055271
0.778,0.0794195870069721,0.2622683054538448,-1.5227372372855266
0.779,1.1324561010432348,-0.7950722878677768,-1.8231783244572493
0.78,-0.7923512323508095,0.6087218374675569,-0.1740774845317662
0.781,-0.8816341713293225,-0.3671016513005924,1.0871016356109395
0.782,1.2348736483716258,1.3922060566261527,0.2716259002088902
0.783,-0.2146174521266791,0.8374180626170007,0.7586115234334395
0.784,-0.0282491038446485,0.6698538282212064,0.4944860106539503
0.785,1.2414342030047611,0.2464132169428715,-0.5685989749041384
0.786,-0.9774776649409708,-0.5437259362740856,0.2320104405218598
0.787,-0.0348231575613912,0.1875228881878279,1.2703462863689687
0.788,0.5521034985992931,0.7468409074858293,0.3624232542642056
0.789,-1.1967567790575366,0.8215629741060274,-0.3721716191163832
0.79,2.0633799047680927,-0.7452653603362511,-0.7039616165886804
0.791,-1.7285261795988978,-0.482593945520436,0.1973448087770248
0.792,-0.244814902156152,-0.7158201959587294,1.0953513488479325
0.793,0.6860279070670626,-2.309968786009018,0.0520825112080911
0.794,-2.750055832495782,-0.2493676950821427,-1.5673193610642164
0.795,1.4475787087714485,0.909875116592774,0.614982332362441
0.796,1.3911120420422196,-2.262426871121917,-0.1328120821973367
0.797,-0.8868853148525523,-0.1293453755734496,1.054085946513503
0.798,1.1967927335155046,0.5000245811809876,0.8064766963574638
0.799,0.6453281699911302,0.5272047329140845,-2.889462178413356
0.8,-1.918917254795896,1.1272696291659128,-0.8888562099941081
0.801,0.3380755280059572,0.9845971832129722,0.479619690677899
0.802,1.4291929568983408,-0.0953701859070782,0.9236731327711571
0.803,-0.3406718948514076,-0.1882123536826744,1.489889675369768
0.804,1.6786695210443794,1.2563286486064862,0.0586822817976855
0.805,-0.5455069895081897,-1.6487718990035398,-1.0572345407760864
0.806,-1.4882424913894132,0.0607288813916792,0.0504325685606924
0.807,1.0983169186004378,-0.1610555525953961,0.5918831352988602
0.808,-2.178896105988394,0.1399809733007268,-0.3688717338215859
0.809,-0.8606295972364036,0.9234651924593223,0.6612143987885297
0.81,1.346470572552963,1.0819693762774176,-0.4035373655664208
0.811,-0.1621060168943817,0.6675888155767817,1.489889675369768
0.812,-0.1121999047982881,-0.5414609236296608,-0.4679019649644312
0.8130000000000001,0.6899696394803868,0.1377159606563021,-1.2487120686216455
0.8140000000000001,-1.266344555053036,-1.4925093771840507,-0.1427117380817286
0.8150000000000001,-0.6807408090858648,-0.9015045315099216,-0.9119554070576892
0.8160000000000001,1.0602360037443166,-0.1904773663270991,0.7734610072600274
0.8170000000000001,1.125882047326492,-1.1166340314386356,0.9055237636497722
0.8180000000000001,0.1069847157330265,-0.8720593671323997,-1.9237743175001767
0.8190000000000001,0.863284373914183,-0.9603715096191464,-1.1876473545184325
0.8200000000000001,-0.62821587476996,-0.0568883215976762,0.0784984297159326
0.8210000000000001,-1.1705010614413878,2.460988466398992,0.5786667579702078
0.8220000000000001,0.2028417084282821,1.6594074967308172,0.8493920413392915
0.8230000000000001,-0.9459708038015924,1.1566914428976158,1.489889675369768
0.8240000000000001,0.8357057461045213,0.5045546064698371,-0.8855563246993109
0.8250000000000001,1.446269297661543,-0.0546233089532515,-1.2223129862632671
0.8260000000000001,-1.2125102096272258,-0.3761617018782914,0.5935330779462588
0.8270000000000001,0.0387063508474325,-0.3104996858357923,0.212211128753076
0.8280000000000001,0.4746322577771452,-0.3376798375688894,1.3050119181138031
0.8290000000000001,-1.2256448179771038,-0.6750733190049025,-0.1443616807291274
0.8300000000000001,-0.1174510483215179,0.0448737928807059,-0.7287275924491233
0.8310000000000001,1.4528298522946783,-0.7044951327366055,0.4631202642039129
0.8320000000000001,-1.3556274940315494,1.1906666325639872,0.7519949166943817
0.833,0.0636526573536756,-0.2448376697932932,-1.029168679620846
0.834,-0.462784605162812,1.0774393509885682,-0.9548875881889805
0.835,-1.1626175966147396,-0.1225503376401753,0.268326014914093
0.836,0.4299907882878886,0.072053944613803,0.4763198053831018
0.837,0.9039841109901154,0.0176936411476089,1.489889675369768
0.838,0.8199523155348322,0.7853461224410502,-0.1872770257109555
0.839,0.4299907882878886,-0.9671665475524208,-3.001725623034317
0.84,0.3735241215586598,0.1762211756115229,-0.4150869640982113
0.841,-0.9039481565321472,1.521265076066726,0.3558234836746111
0.842,-0.147661997434598,1.4238928830022806,0.0718818229768748
0.843,1.3543540373796117,0.5928667489565836,1.489889675369768
0.844,-0.8960781907891062,-0.3580416007228934,0.4763198053831018
0.845,1.1114380278667084,-0.473533894942737,-0.9846033919916192
0.846,0.764808558999116,-0.1248153502846001,0.235310325816657
0.847,-1.9937561743146253,0.5838066983788847,0.040516076526837
0.848,1.8125939295121487,0.3618821605168963,0.7866605484392167
0.849,-1.5946017711311282,0.939320280970296,1.3908426080774594
0.85,-1.582790072974763,-0.7656504741360739,-1.3758249970691945
0.851,1.981980430616228,0.1128008215676298,0.3624232542642056
0.852,-0.7976023758740394,0.5000245811809876,0.988054568318631
0.853,-0.2881469605355029,-2.033707295326654,-1.2619284459502975
0.854,0.4247396447646589,-1.8593480229975856,0.3690230248538004
0.855,-1.8453877463870725,0.0380787549474317,-0.7881592000544011
0.856,0.8225846368382507,-1.9521901907731816,-1.1463651160345396
0.857,2.0502452964182147,-0.1112252744180515,1.489889675369768
0.858,-0.4693451597959474,1.6707092093071223,0.5753668726754106
0.859,-0.1752271261606524,0.3505804479405914,-2.412393047222662
0.86,0.662391011670725,-0.8471675786895462,-1.1843306330741716
0.861,-0.9341591056452272,2.021692766609684,-0.449752595843046
0.862,-0.5192377728084338,1.2721837371174596,0.4102884271882294
0.863,-0.4417665319862858,-0.0614183468865257,1.489889675369768
0.864,1.0444825731746274,0.8464781131946997,1.1366335873318254
0.865,0.795006009028589,-0.3240897617023408,-1.6630497069122645
0.866,-0.5100448968718798,-1.0079367751520665,-0.8987558658785001
0.867,0.5179643161564961,-2.2556318331886422,-0.4002206441221602
0.868,-0.5310629700484061,0.3800022616722944,0.8592916972236835
0.869,-1.02869318814697,1.1295346418103376,1.489889675369768
0.87,0.514022583743172,1.3333157278711092,-1.8760101614729323
0.871,-1.1127249836022532,0.101475758345506,0.302991646658928
0.872,-0.9367779278650386,0.9687420947019988,1.489889675369768
0.873,0.974894797179128,-0.7497953856251006,-0.0519143840264135
0.874,-1.4120941607607782,-0.7679154867804987,-0.7138781086225354
0.875,-0.1883617345105304,0.1513060365228506,-0.4101371361560154
0.876,0.3538289585756464,0.334725359429618,-0.2301923706927834
0.877,1.1350749232630462,-2.2148616055889967,0.5473010115201701
0.878,0.3196897761328495,-1.0464186394614683,1.3561769763326246
0.879,-0.1095810825784769,0.1331859353674526,-2.0178715568502894
0.88,1.152151264026248,0.3822672743167191,-1.890758628402741
0.881,-1.3109860245422926,1.0638492751220197,0.3574734263220097
0.882,-0.2658329753326783,0.280365055963424,0.4020387139512364
0.883,1.757450172976433,1.0208373855237682,1.2538300237455189
0.884,-1.4790496154528592,1.831501756415461,-0.4282865052774005
0.885,0.559973464342334,1.6458174208642689,-0.5983147787067772
0.886,0.4825157226037934,0.1309209227230278,-0.3936208735325655
0.887,-0.1515902307643149,0.1467760112340011,0.5951830205936574
0.888,0.7753108460455755,-1.4925093771840507,1.1679993337818628
0.889,-1.2190842633439685,-1.2185128991461118,0.0883980856003243
0.89,-0.6899336850224186,0.1762211756115229,-1.3725251117743968
0.891,1.068119468570965,-0.1270803629290248,0.4697200347935074
0.892,-0.9354685167551328,0.2350881537207477,1.3198614019403914
0.893,-0.6347899284867027,-1.2706081899678812,-1.3064937335795246
0.894,0.662391011670725,-1.4970394024729,-0.3870211029429711
0.895,-1.02869318814697,-0.276524496169421,-0.5372332284541008
0.896,0.3525195474657408,1.2133167590082348,-1.1678312066001852
0.897,1.1770975705324913,-0.5731711006516074,1.489889675369768
0.898,-0.3025909799952865,-0.3557765880784685,0.8857076157315251
0.899,0.3275732409594977,0.9597053947701186,-2.684768273239144
0.9,0.5704757513887936,-0.6410981293385312,-0.8195249465044384
0.901,0.0912312851633372,0.4071824134053914,-0.6428969024854672
0.902,-0.1384691214980442,1.8563935448583144,-0.2516584612584291
0.903,0.3459589928326054,-0.7565904235583748,1.489889675369768
0.904,0.1805142241418502,-1.3430652439436543,0.7800607778496219
0.905,0.9683207434623852,1.1023544900772404,-1.9402737439741635
0.906,-0.2303708826963684,-0.2108624801269219,0.8312426722179067
0.907,-1.3569504042250622,0.7332508316192808,-0.3969207588273629
0.908,0.1726442583988092,0.4524593156480677,0.4631202642039129
0.909,-0.7713331591742834,-0.1610555525953961,1.489889675369768
0.91,-1.1127249836022532,0.9891272085018216,-1.9518401786554167
0.911,0.4378607540309296,0.5792766730900352,0.6298486523384923
0.912,-0.7109382591153376,-0.0953701859070782,1.489889675369768
0.913,-0.0216885492115132,-0.8018673258010511,-0.7980588559387929
0.914,-0.696494239655554,-0.4395587052763657,-0.3127400115111055
0.915,0.3078780779764843,-2.146934576902073,-0.3523554711981362
0.916,-0.1621060168943817,-1.2841982658344298,-0.7518436256621674
0.917,0.8934818239436559,-0.9309496958874434,1.0161204294738713
0.918,0.7845037219821295,1.1498964049643414,0.5192519865143933
0.919,-0.0701907566124502,0.4683144041590409,-2.194499600869261
0.92,0.0124506332312837,0.4932295432477133,-1.6432503951434807
0.921,-0.0597694640676343,1.577890392177345,0.7536448593417803
0.922,-0.6767990766725407,2.408916526223041,0.2765757281510864
0.923,0.3932192845416732,0.7106007051750333,1.012820544179074
0.924,0.1450656305891476,-1.041888614172619,1.489889675369768
0.925,0.8304546025812917,0.4773744547367399,-0.411787078803414
0.926,1.0878146315539785,-0.2606694076584477,-1.1579315507157937
0.927,0.2579854649639981,-0.9468047843984166,0.0669319950346786
0.928,-0.6269064636600544,0.8872249901485265,0.3079414746011238
0.929,-0.38137163192734,0.7581659707079531,1.3990923213144526
0.93,-0.347232449484543,-0.8833844303545235,-0.3903209882377683
0.931,-0.3761204884041103,0.2577382801649953,-1.4137905141088265
0.932,0.0584015138304458,1.3423757784488082,0.996304281555624
0.933,-0.1266439242580718,-0.878854405065674,0.9649553712550496
0.934,-0.5770138506475682,-1.3090900542772832,-0.4778184569982862
0.935,-0.2894563716454085,0.5294697455585093,-0.54219989254576
0.936,0.777943167348994,0.119595859500904,-0.6891121327620925
0.937,1.0825634880307484,-2.0065271435935568,0.5258517571039877
0.9380000000000001,0.7096648024634001,-0.4893889834537103,1.3016951966695427
0.9390000000000001,0.1030429833197023,1.3718209428263302,0.1989947514244234
0.9400000000000001,0.3906004623218619,-0.5890261891625806,-2.681468387944347
0.9410000000000001,-0.7621537823213367,0.062993894036104,-1.3411593653243594
0.9420000000000001,-0.6505433590563919,1.0434875119680156,1.489889675369768
0.9430000000000001,1.6432209274916767,0.0041269159268792,0.8725080745523358
0.9440000000000001,-1.2151425309306445,0.7785510845077758,1.489889675369768
0.9450000000000001,0.1069847157330265,1.0434875119680156,0.302991646658928
0.9460000000000001,0.6295612403378337,-0.5256058351186876,-2.5147399998097675
0.9470000000000001,-0.2842052281221788,-0.2289825812823199,0.7387953755151928
0.9480000000000001,0.1765724917285261,-0.5663760627183332,1.092051463553135
0.9490000000000001,-0.9840517186577136,1.278978775050734,-0.1740774845317662
0.9500000000000001,0.4155467688281051,0.2192330652097744,1.489889675369768
0.9510000000000001,-0.0269396927347429,-0.5844961638737312,-0.6560964436646562
0.9520000000000001,0.1608190611588368,-0.2018024295492229,-0.609881213388031
0.9530000000000001,-0.0531954103508917,-1.2185128991461118,0.7899604337340139
0.9540000000000001,-0.7017453831787838,-0.247102682437718,-0.3556553564929335
0.9550000000000001,-1.0523300835433076,0.1739561629670981,-0.9119554070576892
0.9560000000000001,-0.8094140740304044,-0.0636833595309505,-1.1364654601501478
0.9570000000000001,1.4396952439448003,-0.0185232105173683,0.0339163059372426
0.9580000000000001,-0.5166189505886224,-0.8381075281118472,1.258779851687715
0.9590000000000001,0.1476844528089588,0.8215629741060274,-1.7786130368280229
0.96,0.4956368318700642,-0.1768872904605506,-1.0786837951922683
0.961,-0.2566400993961244,1.070644313055294,1.0590357744556993
0.962,0.2894923261033766,0.7423108821969798,-0.1278454181056775
0.963,0.8002571525518187,0.5656865972234866,0.5308015850461836
0.964,0.9079258434034394,-1.066803753261291,1.489889675369768
0.965,0.1345633435426881,0.7083356925306085,-0.9994528758182072
0.966,-0.620345909026919,1.229171847519208,-0.6610462716068524
0.967,0.8593426415008588,-0.3738966892338666,0.2237607272848663
0.968,-0.5231795052217578,-0.8267824648897235,0.3178579666349789
0.969,-0.78184894530435,-0.6728083063604778,0.958338764515992
0.97,-0.2225009169533274,0.3188702709186448,-0.9895532199338152
0.971,-0.1581642844810575,1.269918724473035,0.0817983150107298
0.972,0.5022108855868068,-0.2878495593915448,0.8626084186679441
0.973,-1.135038968805078,-0.1587905399509714,1.103617898234389
0.974,-0.5402423469013526,-1.041888614172619,-0.4943178834722727
0.975,0.5954355569786439,-0.8833844303545235,-1.8793100467677295
0.976,-0.470654570905853,-0.9558414843302968,0.3558234836746111
0.977,0.7543062719526565,-1.1392608072370642,-0.1658277712947729
0.978,1.641898017298164,-1.6080016714038945,0.4845695186200953
0.979,0.1608190611588368,0.5860717110233095,0.4878862400643559
0.98,-0.3656182013576508,0.6539987397102331,-2.242364773793285
0.981,0.4260490558745646,1.3469058037376576,-0.903705693820696
0.982,-1.76922591667483,1.240473560095513,0.5588674462014241
0.983,-0.1831105909873006,1.774876440304842,0.2485267031453092
0.984,0.8304546025812917,1.5869270921092251,1.409008813348308
0.985,-0.466712838492529,-0.2651994329472972,1.1234172100031727
0.986,1.4895878569572865,-0.5731711006516074,-0.5685989749041384
0.987,0.06234324624377,0.1309209227230278,-0.2450586906688344
0.988,-1.2886720393394682,-0.1044302364847773,0.4003887713038377
0.989,0.5350271578360909,-1.093983904994388,0.5076855518331396
0.99,-1.497435367325967,0.3188702709186448,0.2270606125796635
0.991,-0.0911953307053692,-0.7928072752233521,-0.6428969024854672
0.992,1.7994593211622707,1.530325126644425,0.6067326191254481
0.993,-0.8277998259035122,0.0426087802362812,0.5407012409305756
0.994,-1.4580450413599404,-0.0863101353293792,0.2584263590297013
0.995,0.4418024864442538,-0.6728083063604778,-0.0981464504525019
0.996,-1.207259066103996,-0.690905056870057,-0.8046586265283874
0.997,0.7385528413829674,-0.9468047843984166,0.200644694071822
0.998,1.7561407618665272,0.9823321705685472,0.1775286608587777
0.999,-0.4982331987155147,-0.1497304893732723,0.6265487670436951
1.0,1.3005196919538011,-1.934070089617784,-1.1034497710527116
1.0010000000000001,0.4549370947941318,-0.0004031093619702,-1.3972910876348397
1.002,-1.7889210796578436,2.046607905698356,-0.1575612219083165
1.0030000000000001,0.8055082960750485,0.2735700180301497,1.1102176688239838
1.004,0.4102956253048753,0.0516688308139802,1.189448588198045
1.0050000000000001,-0.5612604200778789,0.4501943030036429,1.1679993337818628
1.006,-0.7188217239419857,0.4320975524940637,-1.738997577140992
1.0070000000000001,-1.603794647067682,0.1558360618117001,-0.0304651296102311
1.008,0.9053070211836284,0.2441482042984467,0.2897921054797387
1.0090000000000001,-0.8698089740893501,1.014042347590494,0.732195604925598
1.01,-1.1127249836022532,0.1037407709899307,0.5258517571039877
1.0110000000000001,1.199411555735316,-0.3399448502133141,-0.2417588053740372
1.012,0.1870747787749856,-0.7407353350474016,0.6215989391014989
1.0130000000000001,-0.9275850519284848,0.1354509480118773,0.3574734263220097
1.014,0.117487002779486,-0.5912912018070055,0.9319396821576136
1.0150000000000001,-2.055473984567084,-2.583965264046957,-1.042368220800035
1.016,-0.0701907566124502,-0.4056068662558132,-1.2619284459502975
1.0170000000000001,0.4641299707306857,-1.195886123347683,1.2092647361162925
1.018,0.2697971631203632,0.4433992650703687,-0.6131810986828282
1.0190000000000001,0.7831943108722239,0.3234002962074943,-0.0420147281420214
1.02,-0.0321908362579727,1.1702815187641644,-0.3176898394533015
1.0210000000000001,-0.0335002473678783,0.9483803315479948,-1.8165785538676549
1.022,-0.9236433195151604,0.2532082548761458,1.3710264601592124
1.0230000000000001,1.0392314296513978,0.7445758948414046,0.7024798011229592
1.024,0.1687025259854851,1.3990010945594271,-0.3127400115111055
1.025,0.1765724917285261,0.3709422110945953,1.2554799663929177
1.026,1.8060333748790136,-1.2887282911232791,0.5753668726754106
1.027,-0.8081046629204989,-0.2244525559934704,-0.5884151228223853
1.028,-0.926275640818579,-0.3444515248563448,0.2237607272848663
1.029,0.7503645395393326,-0.5573160121406342,0.5275016997513864
1.03,-1.966191045588571,1.1295346418103376,0.4961359533013489
1.031,-0.1292762455614903,1.0457525246124404,-0.5207338019801143
1.032,2.030550133435202,-0.455413793787339,0.506035609185741
1.033,-2.750055832495782,1.3355807405155338,0.5093354944805383
1.034,1.011652801841736,0.5634215845790619,-1.0176190810890555
1.035,-0.6492339479464864,-1.619326734626018,-0.2582582318480237
1.036,-2.513713876699621,1.5846620794648003,0.2716259002088902
1.037,2.62666966553244,-1.508364465695024,-0.4382029973112555
1.038,0.4825157226037934,-3.2995224545186286,0.3475569342881547
1.039,-0.9341591056452272,0.3890623122499934,-0.04366467078942
1.04,2.62666966553244,0.5362414328459648,-1.9650397198346063
1.041,-1.2387794263269818,-1.9182150011068104,-0.2202927148083915
1.042,-2.025276534537612,2.6625278904611576,0.910473591591968
1.043,2.080456245531295,1.1046195027216652,-0.1096960489842926
1.044,0.075477854593648,-0.1814173157494001,0.8708581319049372
1.045,0.1490073630024717,0.9597053947701186,0.4565204936143181
1.046,0.95650904530602,2.553830634174588,-1.07703385254487
1.047,-1.7889210796578436,-0.002668122006395,1.1861487029032478
1.048,0.5376594791395094,-0.3988118283225389,0.1263636026399565
1.049,0.7831943108722239,-0.8041323384454758,0.6975299731807634
1.05,-1.9254778094290317,0.7445758948414046,0.1775286608587777
1.051,1.333349463286693,0.6019267995342826,-1.497988097574547
1.052,0.6518887246242655,-0.7905422625789273,0.7255958343360035
1.053,-0.9446613926916868,-2.8036014386187014,0.5638172741436199
1.054,0.5061391189165237,-0.4622088317206133,-0.1658277712947729
1.055,-0.4837891792557311,-1.0803938291278394,-0.2202927148083915
1.056,-1.8952803593995584,0.5249397202696598,0.06528205238728
1.057,0.0912312851633372,-0.4033418536113884,-0.8574904635440707
1.058,1.4895878569572865,0.5294697455585093,0.6050826764780494
1.059,-0.2461378123496649,0.101475758345506,0.5473010115201701
1.06,0.6650233329741435,-1.112104006149786,-1.9980554089320424
1.061,-0.3039003911051922,1.58015540482177,-0.2846741503558653
1.062,-0.8711318842828631,1.1227396038770634,0.1181138894029635
1.063,-0.2001734326668955,0.8125029235283283,-0.1311621395499381
1.064,0.470690525363821,-0.5097740972535331,1.4304580677644902
1.065,0.4391836642244425,-0.1021652238403525,1.489889675369768
1.066,1.0405408407613033,0.1603660871005496,-0.8459240288628168
1.067,-0.168666571527517,0.5611565719346371,-1.2338625847950575
1.068,-1.9254778094290317,0.3234002962074943,0.2980418187167318
1.069,0.8041988849651428,0.2916901191855477,0.7371454328677938
1.07,-0.6873013637190002,0.6336136259104105,0.6496479641072761
1.071,-1.4987447784358727,-0.6026162650291292,-0.4877181128826783
1.072,1.9320743185201348,0.4230375019163647,0.2897921054797387
1.073,-0.1253345131481661,1.437482958868829,1.460173871567129
1.074,-2.135564047609043,-0.7067601453810304,1.002920888294682
1.075,1.582812528349124,-2.158259640124197,-1.032468564915643
1.076,-1.911033789969248,0.7536359454191036,-1.17443097718978
1.077,0.3393849391158628,-2.321293849231141,0.0025505594872052
1.078,0.0373969397375268,-0.425991980055636,-0.0568642119686093
1.079,0.6124983986582387,0.7060706798861838,1.2158645067058866
1.08,0.6019961116117792,-0.6931700695144818,-1.0886002872261238
1.081,-0.7582120499080126,-0.3580416007228934,-2.1416677638535777
1.082,-1.3687621023814274,2.3002192699364725,-0.0469645560842176
1.083,1.32152426604672,1.6480824335086934,1.0689522664895543
1.084,-0.3524835930077728,-0.3308847996356152,1.4337579530592874
1.085,-0.2343126151096925,1.7363945759954402,1.489889675369768
1.086,2.058128761244863,1.1431013670310672,-1.0621843687182824
1.087,-1.5657137322115608,-1.494774389828475,-0.8541905782492732
1.088,0.5573546421225228,-0.0478282710199772,0.4994358385961462
1.089,0.6400770264679004,0.8328880373281512,-0.0023992684549909
1.09,-2.4139286506746487,-0.7565904235583748,1.007870716236878
1.091,0.5035202966967125,-0.0840451226849545,0.5324515276935826
1.092,1.6576649469514604,-0.4667388570094627,-0.6016146640015746
1.093,-1.6838847101096417,-0.8471675786895462,1.2472302531559245
1.094,1.377990932775949,-1.515159503628298,0.2303604978744607
1.095,-1.4134035718706837,-0.951334809687266,-2.108652074756141
1.096,-2.4756329618435005,1.0751743383441434,0.7173292849495471
1.097,1.152151264026248,-0.5935562144514301,-0.2103930589239996
1.098,0.9000423785767913,-0.8562276292672454,-0.1806772551213608
1.099,0.083347820336689,0.862333201705673,1.489889675369768
1.1,2.307605325390901,0.63814365119926,-1.9881557530476508
1.101,-0.2435054910462464,-2.079007548215149,-0.2846741503558653
1.102,-1.6274315424640196,0.9823321705685472,0.0339163059372426
1.103,0.8041988849651428,1.9560307505671848,0.6595644561411311
1.104,-0.5507581330314194,0.0561988561028297,1.489889675369768
1.105,0.1713213482052963,-0.0185232105173683,-0.1839771404161581
1.106,1.157402407549478,1.5008799622669031,-1.6911155680675047
1.107,-0.1437202650212739,-0.2719944708805715,0.2996917613641308
1.108,-0.1844200020972063,-0.9173596200208948,0.1313134305821524
1.109,0.1082941268429321,-0.2878495593915448,1.489889675369768
1.11,-0.913141032468701,0.7943828223729303,1.2191643920006838
1.111,0.5704757513887936,0.8985500533706503,-1.83472792298904
1.112,-0.1515902307643149,-0.4576788064317637,0.436704345696071
1.113,-0.0019933862284998,0.7377808569081303,1.1151674967661795
1.114,-0.3314790189148538,-1.70537386446834,-1.029168679620846
1.115,-0.6032695682637169,-1.2140062245030812,-0.4415028826060528
1.116,-1.33987406346186,-0.44635374320964,-0.2731245518240748
1.117,0.6111889875483332,0.0086335905699099,-0.6544465010172577
1.118,1.1482095316129242,-1.9295400643289344,1.1630326696902036
1.119,0.0518409591973105,-0.2584043950140229,0.1280135452873551
1.12,0.0702267110704182,0.1399809733007268,-2.1301181653217878
1.121,0.7346111089696432,1.5869270921092251,-1.2008468956976217
1.122,-0.5494352228379065,1.3378457531599586,0.7272457769834021
1.123,-1.0995903752523752,0.6494687144213837,0.2881421628323401
1.124,1.613023477462204,0.4117124386942409,1.489889675369768
1.125,0.5967449680885495,1.10688451536609,0.3822225660329893
1.1260000000000001,-0.1634154280042873,-0.4780639202315865,-1.4137905141088265
1.127,1.104877473233573,-1.041888614172619,0.268326014914093
1.1280000000000001,-0.4036991162137719,-0.5459909489185103,0.3046415893063266
1.129,0.5612963745358469,-1.263813152034607,-0.2566082892006251
1.1300000000000001,-0.2592589216159356,-0.1746222778161258,1.489889675369768
1.131,-2.203842412494637,1.6005171679757737,-0.7799094868174078
1.1320000000000001,0.3485778150524167,0.2554732675205705,-1.0077025890552005
1.133,-0.1332179779748144,0.5883367236677342,1.489889675369768
1.1340000000000001,-1.4330987348536972,-0.0682133848198,0.1197638320503621
1.135,1.1547700862460597,-2.008792156237982,-0.6891121327620925
1.1360000000000001,-0.620345909026919,0.2554732675205705,0.7701611219652302
1.137,-0.8829435824392281,-0.3037046479025181,-1.7868627500650158
1.1380000000000001,1.4685832828643677,-1.8389629091977628,0.9385394527472082
1.139,0.3275732409594977,1.0208373855237682,1.3363608284143778
1.1400000000000001,-0.8553784537131738,-0.2335126065711694,-1.7406475197883906
1.141,1.6445303386015824,-2.790034713397972,-1.6069348207512473
1.1420000000000001,0.0636526573536756,2.549300608885739,-1.0654842540130796
1.143,-0.802853519397269,1.7250695127733164,0.6645142840833269
1.1440000000000001,0.7543062719526565,-0.3037046479025181,1.397442378667054
1.145,0.1962676547115395,1.3559658543153563,1.489889675369768
1.1460000000000001,0.5639151967556582,0.8238279867504521,-0.6957119033516871
1.147,0.3932192845416732,0.0403437675918564,-1.0011028184656057
1.1480000000000001,-1.387147854254535,1.3197256520045606,1.0904015209057367
1.149,0.4470536299674835,-0.0253182484506425,-0.3242896100428959
1.1500000000000001,-0.6466016266430679,-1.0011417372187918,1.489889675369768
1.151,0.0951730175766614,-0.1700922525272763,-0.5652990896093409
1.1520000000000001,-0.9026387454222417,-0.0162581978729435,-1.096850000463117
1.153,0.3472684039425111,-0.1384054261511486,1.1300169805927676
1.154,0.2067699417579989,-2.0246472447489547,0.7272457769834021
1.155,-0.5074260746520686,-1.07586380383899,-0.5471497204879561
1.156,0.3144386326096197,-0.8924444809322225,-0.931771554975936
1.157,-0.4102596708469073,-0.2131274927713466,-0.4580023090800393
1.158,0.8252034590580618,0.2554732675205705,-0.1740774845317662
1.159,0.3065686668665787,0.5883367236677342,1.489889675369768
1.16,0.1463750416990532,0.2667983307426942,-0.6214308119198215
1.161,-0.0571371427642158,-0.0568883215976762,-2.148284370592636
1.162,-0.2933981040587327,0.6970339799543035,0.2419100964062514
1.163,-0.0466348557177563,0.3528454605850161,-0.276424437118872
1.164,0.4969462429799697,-0.0999002111959278,0.2237607272848663
1.165,0.2212139612177826,1.691094323106945,1.489889675369768
1.166,0.4444348077476723,-1.0147318130853404,-0.4563523664326407
1.167,0.9630695999391556,-0.3467165375007696,-0.8591404061914693
1.168,-0.9669753778945114,0.0222236664364584,0.360773311616807
1.169,-0.0715001677223558,1.125004616521488,0.2419100964062514
1.17,-0.4549011403361638,0.092415707767807,1.1762490470188562
1.171,-1.7849928463281268,0.835153049972576,1.2752961143111643
1.172,1.1075097945369916,0.6336136259104105,0.0388661338794384
1.173,0.3906004623218619,-0.85849264191167,1.489889675369768
1.174,-1.1705010614413878,0.5068196191142618,-0.6858122474672953
1.175,-0.3774298995140159,-1.103043955572087,-0.806308569175786
1.176,-0.7372074758150936,-1.225307937079386,-0.2945738062402571
1.177,-0.1594736955909632,0.2464132169428715,-0.9433211535077268
1.178,1.178406981642397,-1.0917188923499634,1.489889675369768
1.179,0.9223698628632232,-2.0133221815268314,1.0689522664895543
1.18,0.5100808513298478,0.7581659707079531,-1.705981888043556
1.181,-0.202805753970314,1.530325126644425,-2.0327210406768774
1.182,0.0636526573536756,-0.5890261891625806,-0.6428969024854672
1.183,-1.3858249440610222,2.460988466398992,0.755294801989179
1.184,0.6387541162743875,2.316074358447445,1.489889675369768
1.185,1.3162731225234905,-0.020788223161793,1.489889675369768
1.186,0.1608190611588368,0.9913922211462464,-1.5095376961063374
1.187,1.3740492003626248,1.1340646670991872,-1.004402703760403
1.188,-0.3603670578344211,-2.588495289335806,0.5803167006176064
1.189,0.2067699417579989,-1.0147318130853404,-0.3721716191163832
1.19,-0.458842872749488,-0.2719944708805715,1.489889675369768
1.191,-0.4732868922092715,-0.4282336420542419,-0.8839063820519122
1.192,-0.2723935299658137,0.1897879008322526,-0.6742458127860415
1.193,-0.6925525072422298,0.334725359429618,1.042536347981713
1.194,0.2015187982347692,-0.2176575180601962,0.3574734263220097
1.195,-1.2584745893099951,0.7445758948414046,-0.8393242582732222
1.196,-0.7043777044822023,-0.1882123536826744,0.2320104405218598
1.197,-0.1515902307643149,-0.1225503376401753,-0.7171779939173326
1.198,0.288182914993471,-0.7882772499345027,-0.1658277712947729
1.199,1.2020438770387345,-0.1361404135067238,1.489889675369768
1.2,0.2894923261033766,0.0675239193249535,-0.9763368426051628
1.201,0.2632366084872278,-0.1225503376401753,-2.5527055168493997
1.202,-0.1069487612750584,-0.1859473410382496,0.4746698627357032
1.203,0.1949582436016338,0.0652589066805287,-0.4514025384904447
1.204,-0.0833253649623282,1.9945359655224055,0.040516076526837
1.205,0.7595574154758864,-0.088575147973804,1.489889675369768
1.206,0.7004719265268463,0.9053450913039244,0.24356003905365
1.207,-0.4601522838593935,1.4737231611796249,-1.2008468956976217
1.208,-0.0938276520087877,-0.1678272398828516,0.3508736557324152
1.209,0.3236315085461735,-1.2456930508792088,0.1313134305821524
1.21,-1.011616847383768,0.101475758345506,1.489889675369768
1.211,0.2317297473478493,-0.0162581978729435,0.0124670515210602
1.212,-0.168666571527517,0.1241258847897535,-1.859493898849483
1.213,-1.3792643894278869,0.6041918121787074,0.8840576730841265
1.214,0.0846707305302019,-0.8992395188654968,1.489889675369768
1.215,-0.6466016266430679,-1.5604597565167937,0.4812696333252981
1.216,-0.4233942791967853,-1.5219545415615725,-0.7122281659751368
1.217,0.0689038008769053,1.014042347590494,-1.910574776320988
1.218,-0.3432907170712189,0.3686771984501706,-0.1047462210420966
1.219,0.30918748908639,-0.3218247490579161,0.8394923854548998
1.22,0.3945421947351861,0.6200235500438619,1.417258526585301
1.221,-0.8684995629794446,0.1875228881878279,-1.7720132662384285
1.222,0.9079258434034394,0.8985500533706503,-1.9765893183663967
1.223,-0.6702385220394053,1.786201503526966,0.132963373229551
1.224,1.56836850888934,0.2554732675205705,1.002920888294682
1.225,0.684718495957157,0.128655910078603,1.489889675369768
1.226,0.1608190611588368,0.2962201444743972,0.631498594985891
1.227,0.3433266715291869,-0.625243040827558,-1.1083995989949076
1.228,-0.4680357486860418,-0.0139931852285188,-0.2714746091766762
1.229,0.1424333092857291,1.260858673895336,-0.5950148934119799
1.23,-0.9026387454222417,-0.9626365222635712,0.834542557512704
1.231,-1.3031160587992516,-0.5935562144514301,1.427158182469693
1.232,0.2999946131498361,1.1227396038770634,-1.0952000578157184
1.233,-0.38137163192734,0.4909645306032885,-0.0403647854946228
1.234,-0.5507581330314194,0.1988479514099516,1.1267170952979704
1.235,-0.5376235246815414,-0.8765893924212492,0.5010857812435447
1.236,-0.0085539408616352,-1.2004161486365326,0.0966477988373177
1.237,-0.244814902156152,-0.6478931672718055,-0.5553994337249492
1.238,1.2414342030047611,-1.789155981666237,-0.6148310413302268
1.239,1.6983646840273927,-0.1384054261511486,-0.0337650149050283
1.24,-0.5888255488039333,0.6766488661544808,0.3657231395590028
1.241,-0.0728095788322614,0.1943179261211021,-0.4778184569982862
1.242,-0.1161416372116123,-0.4622088317206133,-0.991203162581214
1.243,-0.8658807407596333,2.037547855120657,-0.0849300731238497
1.244,-0.2828958170122732,1.2676537118286102,0.0520825112080911
1.245,0.334133795592633,0.9778021452796978,1.489889675369768
1.246,0.6755256200206031,0.298485157118822,-0.1641778286473743
1.247,0.8173334933150208,0.6653238029323569,-1.5194373519907294
1.248,-0.0571371427642158,-1.619326734626018,0.360773311616807
1.249,-0.7765978017811204,-0.029848273739492,0.5753668726754106
1.25,0.2632366084872278,0.2282931157874735,1.489889675369768
1.2510000000000001,-0.1410879437178554,-0.6116529649610095,-0.6511466157224605
1.252,-0.9183921759919308,-0.0185232105173683,-0.6214308119198215
1.2530000000000001,1.4501975309912598,0.2554732675205705,0.311241359895921
1.254,-0.1699759826374227,-0.2651994329472972,0.7107295143599522
1.2550000000000001,-1.574906608148115,0.0471388055251307,0.9319396821576136
1.256,-0.0374419797812024,0.3709422110945953,-2.116918624142598
1.2570000000000001,-1.0825275335727804,0.2532082548761458,-0.344105757961143
1.258,0.2054605306480933,-0.3761617018782914,0.9979710603524862
1.2590000000000001,0.969643653655898,-1.91370832646378,-0.5289835152171075
1.26,0.5626057856457526,-0.0478282710199772,1.258779851687715
1.2610000000000001,0.8737866609606425,-0.3874867651004152,-1.4864216628932931
1.262,0.7713691136322514,0.5702166225123362,-1.6911155680675047
1.2630000000000001,-0.4995426098254202,0.2667983307426942,0.7288957196308007
1.264,0.1279892898259454,-0.643363141982956,0.5456510688727715
1.2650000000000001,1.5591891320363935,1.4986149496224783,0.6645142840833269
1.266,-1.1967567790575366,0.0992107457010812,0.1841452675978355
1.2670000000000001,0.288182914993471,-0.7475303729806758,-0.6692959848438456
1.268,1.1455772103095057,0.0946807204122317,-0.4249866199826031
1.2690000000000001,-1.4225964478072377,-0.2810545214582705,0.6265487670436951
1.27,0.2711200733138761,0.2532082548761458,0.5935330779462588
1.2710000000000001,-0.2553171892026115,0.4773744547367399,-0.035414957552427
1.272,-1.859831765846856,-0.3603066133673182,0.3657231395590028
1.2730000000000001,0.7017813376367518,-1.1053089682165118,-0.0370649001998256
1.274,0.3866587299085378,-0.5097740972535331,0.8626084186679441
1.2750000000000001,-1.3937084088876706,-1.1732359969034356,0.336007335756364
1.276,1.0444825731746274,-2.459412919249414,-0.6428969024854672
1.2770000000000001,-1.812557975054181,1.0525475625457146,-0.6247306972146187
1.278,-0.3275372865015297,-0.5663760627183332,-0.2615581171428209
1.2790000000000001,1.9793481093128096,-0.4961840213869846,-0.0799802451816536
1.28,-0.7621537823213367,0.7377808569081303,0.3822225660329893
1.281,0.2776806279470115,0.8826949648596769,-0.7699929947835525
1.282,1.467273871754462,0.3573521352280468,-1.3741750544217957
1.283,-1.1967567790575366,2.130390022896253,0.7354954902203952
1.284,-0.7595214610179182,0.4524593156480677,1.489889675369768
1.285,1.666844323804407,-1.1347307819482149,0.6100325044202453
1.286,-0.5822649941707979,0.0426087802362812,0.7635613513756357
1.287,1.083872899140654,0.7785510845077758,-0.8888562099941081
1.288,0.705723070050076,-0.3172947237690666,-0.7914590853491983
1.289,-1.4843142580596962,-1.0713337785501404,0.5473010115201701
1.29,0.2317297473478493,-0.2357776192155942,0.6942300878859661
1.291,-0.2343126151096925,-0.2493676950821427,0.7338455475729966
1.292,-1.4698702385999127,1.1634864808308902,-1.4402064326166677
1.293,0.2369808908710791,1.2540636359620614,0.4301045751064766
1.294,-1.518439941418886,-0.2335126065711694,1.2653796222773095
1.295,1.2755733854475582,0.1309209227230278,0.4631202642039129
1.296,-0.3826810430372457,-1.1619109336813118,-0.1641778286473743
1.297,-1.5263234062455342,-0.0094631599396693,-0.9614873587785748
1.298,2.127716537240363,-0.7565904235583748,-0.1146458769264884
1.299,0.5284666032029556,-0.0953701859070782,0.1461797505582036
1.3,-0.7792166240009315,-0.8811194177100988,0.0520825112080911
1.301,1.5158570736570427,-0.6026162650291292,-0.0799802451816536
1.302,-0.4338965662432448,0.1739561629670981,-2.123518394732193
1.303,-1.003746881640727,1.6299623323532957,0.1197638320503621
1.304,1.6392791950783523,-1.1007789429276624,0.8526919266340891
1.305,-0.2815864059023675,1.0163073602349186,0.009167166226263
1.306,0.5783592162154418,0.8759232775722214,0.6199321603046373
1.307,1.4528298522946783,0.090174045769201,0.7784108352022232
1.308,-1.3280623653054948,0.7672260212856521,-0.5471497204879561
1.309,-0.6925525072422298,1.8677186080804384,-0.1592111645557151
1.31,0.7136065348767242,-0.1542605146621218,1.3264611725299855
1.311,-2.750055832495782,-0.3195597364134913,-0.1790273124739622
1.312,0.5744174838021177,-0.5233408224742628,0.6034327338306508
1.313,2.2826590188846585,-1.1528508831036128,-0.0172487522815785
1.314,-1.953056437238693,0.5634215845790619,0.1230637173451593
1.315,0.2868735038835653,-1.4540275128746485,0.8328926148653053
1.316,-0.4338965662432448,-1.9657802666397304,-0.3820712750007751
1.317,-2.039707054913788,-0.0659483721753752,-0.2599081744954223
1.318,0.9630695999391556,0.1626310997449744,0.2501766457927079
1.319,0.8737866609606425,-0.4690038696538875,0.4763198053831018
1.32,-0.9788005751344838,-0.1338754008622991,0.4763198053831018
1.321,1.6642255015845957,0.9030800786594998,-1.1529648866241342
1.322,0.4536276836842262,-0.953576471685872,-1.0786837951922683
1.323,-1.4685473284063997,1.2472685980287872,0.2584263590297013
1.324,0.7201670895098596,1.6752392345959717,0.6859635384995093
1.325,0.9197375415598046,0.0176936411476089,1.214214564058488
1.326,-1.0011145603373084,-0.0343782990283416,0.4499038868752603
1.327,2.249829247551767,0.1852578755434031,-1.1843306330741716
1.328,-0.6085207117869467,-1.8502879724198864,-0.5190838593327157
1.329,-2.216977020844515,-0.6841333695826015,0.5621673314962213
1.33,1.1889092686888565,0.8645982143500978,-0.2863240930032639
1.331,-1.1849450809011717,1.0072473096572196,0.9517389939263976
1.332,-1.68126588788983,1.0163073602349186,-0.1080461063368938
1.333,2.62666966553244,1.4669281232463507,0.8213261801840513
1.334,-0.1266439242580718,-0.2380426318600189,0.910473591591968
1.335,-1.1166667160155774,0.1535710491672753,-0.1179457622212857
1.336,0.9972087823819524,0.2214980778541992,-1.8462943576702937
1.337,-2.5019021785432565,-0.9490697970428412,0.1593792917373925
1.338,0.5022108855868068,-2.7379394225762024,-0.2516584612584291
1.339,2.264273267011551,0.5272047329140845,0.2666760722666944
1.34,-0.2067474863836381,-0.5980862397402796,1.1267170952979704
1.341,0.5849197708485772,0.241883191654022,-2.042620696561269
1.342,0.8816701257872908,-0.4508837684984895,-1.0836336231344643
1.343,-1.4619867737732644,1.5076750002001775,0.1775286608587777
1.344,-0.6255970525501487,1.3763509681151795,1.097001291495331
1.345,1.219106718718329,0.8759232775722214,0.978154912434239
1.346,-1.7022704619827491,1.47598817382405,1.3776430668982702
1.347,1.2637481882075858,-0.1904773663270991,-0.5867651801749867
1.348,1.6182746209854335,-0.2312475939267447,-1.0869503445787252
1.349,-1.5000676886293856,-1.6487718990035398,0.0438327979710976
1.35,0.7030907487466574,-0.6977000948033313,0.6645142840833269
1.351,0.2474831779175386,0.787611135085475,1.2818958849007591
1.352,-1.8361948704505189,-0.276524496169421,-0.0618308760602685
1.353,0.6597721894509139,-0.1021652238403525,-1.0952000578157184
1.354,0.6597721894509139,0.4773744547367399,0.6512979067546747
1.355,-1.7639747731516005,-0.9218896453097444,1.4288081251170917
1.356,0.863284373914183,-1.4177873105638523,-1.223962928910666
1.357,-1.5617719997982369,0.7038290178875778,-0.8806064967571148
1.358,-1.590660038717804,1.0615842624775949,0.0718818229768748
1.359,2.113272517780579,-1.1709709842590108,-0.213692944218797
1.36,0.0610338351338644,0.0879090331247763,1.489889675369768
1.361,-0.3091515346284219,0.5883367236677342,-0.1988434603922091
1.362,1.346470572552963,-1.3793054462544505,-3.077656657113581
1.363,-0.1108904936883825,1.3174839900059547,-0.3375059873715484
1.364,-1.058890638176443,0.4433992650703687,0.7371454328677938
1.365,0.7030907487466574,-0.7203502212475789,0.6876134811469079
1.366,1.5499962560998397,-0.840372540756272,1.489889675369768
1.367,0.3131292214997141,3.502637425730372,-0.0139488669867812
1.368,-1.519762851612399,-0.2606694076584477,-1.209096608934615
1.369,-1.0089980251639568,0.2101730146320754,0.6876134811469079
1.37,0.9131769869266692,0.6426736764881095,0.0355662485846412
1.371,-1.3031160587992516,0.0788489825470773,0.986404625671232
1.372,0.6387541162743875,-0.2448376697932932,1.32151134458779
1.373,1.1153797602800326,0.8464781131946997,-1.5194373519907294
1.374,-0.7135705804187561,1.6276973197088709,0.5770168153228092
1.375,0.5127131726332663,-2.6541573053783054,1.3182114592929923
1.3760000000000001,0.2304068371543365,-1.6057366587594697,-1.4847717202458943
1.377,-2.1093083299928943,-0.7679154867804987,0.5258517571039877
1.3780000000000001,0.3315149733728218,0.5294697455585093,-0.3226396673954973
1.379,1.9425901046502012,-0.7316752844697026,-2.031071098029479
1.3800000000000001,-1.2138196207371317,-0.9218896453097444,1.489889675369768
1.381,0.1266798787160399,1.523530088711151,0.7982269831204704
1.3820000000000001,1.1035680621236674,-1.3702453956767515,-2.688068158533941
1.383,-1.7889210796578436,0.5475664960680886,-0.2285424280453847
1.3840000000000001,-0.1358368001946256,3.285242913157233,0.5258517571039877
1.385,1.1862904464690451,0.2622683054538448,-0.0040492111023896
1.3860000000000001,0.0058900785981484,-0.7203502212475789,1.489889675369768
1.387,1.723310990533636,0.4003873754721171,-2.435509080435706
1.3880000000000001,-0.4509594079228397,0.7173957431083074,-2.435509080435706
1.389,-0.326227875391624,-0.294644597324819,-0.3688717338215859
1.3900000000000001,1.2952685484305717,-0.2040674421936476,1.413958641290504
1.391,-1.326739455111982,-0.1338754008622991,1.489889675369768
1.3920000000000001,-0.7542703174946884,-0.5346658856963866,-1.935323916031968
1.393,0.3052457566730658,0.2758350306745745,-0.4992677114144688
1.3940000000000001,-0.9446613926916868,0.712865717819458,0.436704345696071
1.395,-1.374013245904657,0.701564005243153,-0.5471497204879561
1.3960000000000001,0.0977918397964726,0.2169680525653497,0.1115141188133686
1.397,-0.7253822785751213,-1.6170617219815933,-0.0865800157712483
1.3980000000000001,-0.2671423864425839,-0.1791523031049753,0.0075172235788644
1.399,1.7285621340568655,-1.0509486647503177,0.7140293996547499
1.4000000000000001,0.8829795368971964,-1.490244364539626,0.8642583613153427
1.401,-0.4850985903656367,0.3913273248944181,-0.9119554070576892
1.4020000000000001,1.2624387770976802,-1.0645387406168665,-2.169733625008818
1.403,-0.2421960799363408,-0.455413793787339,-0.6957119033516871
1.4040000000000001,-1.2177613531504554,1.4737231611796249,0.1791954396556396
1.405,1.5027224653071647,0.6879739293766045,1.2009981867298358
1.4060000000000001,-0.6557945025796217,0.8419480879058502,1.489889675369768
1.407,-0.0675584353090316,2.137185060829528,-0.4101371361560154
1.408,0.9026746998802098,0.3664121858057458,-0.5240336872749117
1.409,-1.1967567790575366,-1.60120663347062,0.3376572784037626
1.41,0.3367661168960516,0.1150658342120545,-0.2665247812344801
1.411,0.4601882383173615,-0.5731711006516074,1.489889675369768
1.412,-2.1933401254481777,0.1263908974341783,-0.7171779939173326
1.413,0.075477854593648,-1.225307937079386,-1.974939375718998
1.414,0.6479469922109414,0.6426736764881095,1.489889675369768
1.415,-0.1778594474640709,-0.831312490178573,0.8081266390048624
1.416,-0.3235955540882055,-1.234367987657085,-1.4996380402219456
1.417,-0.5901484589974462,-0.115755299706901,0.7652112940230343
1.418,-1.100913285445888,0.1671611250338239,-2.0459374180055296
1.419,0.1082941268429321,-1.4676175887411973,-0.2962237488876558
1.42,0.8737866609606425,0.891755015437376,1.489889675369768
1.421,0.0478992267839863,0.9778021452796978,-0.5603492616671452
1.422,0.4129144475246865,-0.3920167903892647,-1.463322465829712
1.423,0.5337177467261853,0.5543615340013628,-1.17443097718978
1.424,-0.9669753778945114,1.42842290829113,-0.2219426574557903
1.425,0.9171187193399932,-0.7565904235583748,0.6166322750098397
1.426,0.684718495957157,-0.1836823283938248,1.489889675369768
1.427,-0.5284306487449876,0.7694910339300768,0.1973448087770248
1.428,1.301829103063707,-0.2923795846803943,-1.918824489557981
1.429,-0.326227875391624,-0.7430003476918263,0.212211128753076
1.43,-1.2177613531504554,-0.2878495593915448,-0.6511466157224605
1.431,1.062868325047735,-0.437293692631941,1.489889675369768
1.432,-1.254532856896671,1.5620353036663717,1.2092647361162925
1.433,-1.1284784141719424,0.6404086638436847,-1.890758628402741
1.434,0.6177495421814685,-0.690905056870057,1.4535741009775347
1.435,-0.8435532564732015,0.5951317616010084,1.3693765175118138
1.436,0.829145191471386,-1.4245823484971267,-0.0915298437134441
1.437,0.0058900785981484,-0.7135551833143046,-0.1361119674921342
1.438,-1.3490669393984138,0.1920529134766774,-0.8574904635440707
1.439,0.4536276836842262,-0.5754361132960322,-1.392341259692644
1.44,1.0484243055879516,-0.7022301200921808,1.451924158330136
1.441,0.6216912745947927,-1.2117412118586564,0.6562645708463339
1.442,-0.4247036903066909,1.4669281232463507,-2.3480116116751883
1.443,-0.1424108539113683,0.5724816351567609,-0.9779867852525614
1.444,-1.1599987743949285,0.289425106541123,-0.000749325807592
1.445,1.0786217556174245,1.0457525246124404,0.4680700921461088
1.446,1.0825634880307484,1.3763509681151795,1.489889675369768
1.447,0.015069455451095,1.1974616704972614,1.488239732722369
1.448,1.3714168790592065,-0.0387682204422782,-0.9086555217628918
1.449,-0.1909805567303416,-0.1202853249957506,-0.971387014662967
1.45,-0.1318950677813015,-0.1927423789715239,-0.6131810986828282
1.451,0.1975905649050523,-1.6238567599148674,1.1399334726266226
1.452,-0.6584133247994329,-0.688663394871451,1.489889675369768
1.453,0.1135452703661618,-0.6184480028942837,-0.7815594294648064
1.454,-0.1174510483215179,0.5136146570475361,-1.1810307477793744
1.455,-1.182312759597753,1.5937221300424995,1.489889675369768
1.456,-0.223810328063233,-0.4916539960981351,-0.0172487522815785
1.457,-0.7188217239419857,-1.6533019242923892,-0.281374265061068
1.458,-0.4732868922092715,1.220111796941509,0.0240166500528505
1.459,1.1061868843434788,0.9483803315479948,-1.3725251117743968
1.46,1.0313479648247494,-2.1038993366580026,0.3178579666349789
1.461,-0.4903497338888664,0.0471388055251307,1.425508239822294
1.462,0.1240610564962286,-0.1610555525953961,-1.1579315507157937
1.463,0.7621762376956975,-1.404197234697304,-0.5042175393566646
1.464,-0.9183921759919308,0.5566265466457876,-0.329239437985092
1.465,0.4838251337136991,1.566565328955221,1.4651236995093249
1.466,0.7096648024634001,-0.0071981472952445,1.2290640478850758
1.467,0.0767872657035536,0.2645333180982695,-0.7980588559387929
1.468,0.6138078097681444,1.192931645208412,-0.7749428227257487
1.469,-0.6767990766725407,0.0131636158587594,0.5175852077175314
1.47,-0.6229647312467302,0.1399809733007268,0.0801483723633312
1.471,1.5893865820658664,0.0788489825470773,1.489889675369768
1.472,-2.1736449624651644,-0.8109273763787502,0.5935330779462588
1.473,0.5928032356752254,1.0751743383441434,-1.2916442497529366
1.474,0.5205831383763073,-0.5822311512293065,0.6529478494020733
1.475,-1.7140821601391143,-0.3014396352580933,1.3627767469222194
1.476,0.3078780779764843,0.0244886790808832,-1.4484561458536611
1.477,-0.8409344342533903,-0.7950722878677768,-0.8855563246993109
1.478,-0.4076273495434888,-0.878854405065674,-0.0254984655185719
1.479,0.5245248707896314,-1.6895187759573669,-0.4910179981774755
1.48,0.7897548655053592,0.2079080019876507,1.489889675369768
1.481,0.7004719265268463,0.072053944613803,0.4878862400643559
1.482,-0.4404571208763801,0.6132518627564064,-2.217615634082305
1.483,-0.1043299390552472,0.0788489825470773,-1.4187403420510225
1.484,0.1201193240829045,1.014042347590494,0.4102884271882294
1.485,0.2894923261033766,0.8668632269945225,0.5407012409305756
1.486,-0.2408866688264352,1.3446407910932328,1.489889675369768
1.487,0.3236315085461735,-1.0826588417722642,1.0821518076687435
1.488,0.8396474785178455,0.0335487296585822,-1.7026820027487584
1.489,-0.0256302816248373,-0.951334809687266,-1.0176190810890555
1.49,-0.462784605162812,-0.2108624801269219,0.1346133158769496
1.491,0.0242623313876488,0.486434505314439,0.7140293996547499
1.492,-0.7437680304482289,0.8691282396389473,1.489889675369768
1.493,-1.083836944682686,0.1965829387655269,-1.2767779297768855
1.494,0.7030907487466574,-0.7792171993568037,-0.5240336872749117
1.495,-0.496923787605609,1.9718858390781584,1.2323639331798732
1.496,-0.5875161376940277,-1.54460466800582,1.070602209136953
1.497,0.2172857278880657,-2.1106943745912767,-0.2301923706927834
1.498,-0.3656182013576508,0.6517337270658085,-0.8657401767810637
1.499,0.0794195870069721,-0.85849264191167,-0.5999647213541758
1.5,0.4155467688281051,-1.4291123737859763,-0.2070931736292024
1.5010000000000001,1.1140703491701271,-0.0931051732626535,1.030986749449922
1.502,0.8304546025812917,0.4320975524940637,-0.8030086838809888
1.5030000000000001,-0.6426598942297437,0.1241258847897535,-1.8892097026521215
1.504,0.3827169974952137,0.8804299522152521,0.1313134305821524
1.5050000000000001,-0.9118316213587954,0.4049174007609666,0.2749257855036878
1.506,0.3958516058450917,0.1920529134766774,0.8807577877893292
1.5070000000000001,0.8934818239436559,2.6512028272390338,1.245580310508526
1.508,-0.462784605162812,0.8804299522152521,-0.146011623376526
1.5090000000000001,0.6046149338315905,-0.9354797211762929,-0.4827682849404822
1.51,0.4326096105076999,0.2554732675205705,0.3475569342881547
1.5110000000000001,0.3997933382584158,-0.709025158025455,0.2237607272848663
1.512,-1.1718104725512934,-0.8562276292672454,0.5440011262253729
1.5130000000000001,-0.5638792422976902,0.6358786385548352,0.1296634879347538
1.514,1.02084567777829,-0.2357776192155942,-1.1133494269371034
1.5150000000000001,0.0478992267839863,-1.07586380383899,1.161382727042805
1.516,-0.0492671770211748,-1.1573809083924624,0.8064766963574638
1.5170000000000001,-0.3380395735479892,0.2645333180982695,-0.2219426574557903
1.518,-0.913141032468701,0.6539987397102331,-0.367204955024724
1.5190000000000001,0.1056753046231208,0.9687420947019988,-0.609881213388031
1.52,0.8645937850240886,-1.3023183669898275,-0.4249866199826031
1.5210000000000001,-0.1870523234006248,0.0335487296585822,1.0904015209057367
1.522,1.0024599259051823,0.3822672743167191,-0.2368089774318412
1.5230000000000001,0.8488403544543993,-1.2411630255903592,-1.7703633235910292
1.524,-0.8619390083463091,0.900815066015075,0.0075172235788644
1.5250000000000001,0.4431253966377667,1.5959871426869243,0.212211128753076
1.526,1.301829103063707,-0.1859473410382496,0.24356003905365
1.5270000000000001,-0.7463868526680402,-0.2878495593915448,1.489889675369768
1.528,0.764808558999116,1.4850482244017489,0.471369977440906
1.5290000000000001,-0.4430894421797987,1.9039588103912344,-2.25228126582714
1.53,-0.210675719713355,0.26000329280942,-0.1938767963005499
1.5310000000000001,-0.7122476702252433,-0.4803289328760113,0.5225518718091905
1.532,-0.1936128780337602,0.0199586537920336,1.4667736421567237
1.5330000000000001,-0.4155108143701371,0.1603660871005496,0.8592916972236835
1.534,-0.6308481960733785,0.5679516098679114,0.2633761869718972
1.5350000000000001,1.0221550888881956,-0.2742594835249962,1.0755520370791487
1.536,-1.497435367325967,-0.0908401606182287,1.1151674967661795
1.537,0.0308363851043915,-0.9694315601968454,-1.8198784391624525
1.538,-0.2211915058434218,-2.210331580300147,-1.1265658042657558
1.539,-1.0759534798560375,0.2237630904986239,0.075181708271672
1.54,1.6970552729174873,0.4185074766275152,-0.5339333431593036
1.541,0.4102956253048753,-0.2289825812823199,1.489889675369768
1.542,-0.5152960403951096,-0.4780639202315865,-0.5801654095853921
1.543,1.016903945364966,1.1023544900772404,-1.8859098173573243
1.544,-0.4601522838593935,0.9778021452796978,0.9633054286076512
1.545,-1.9491147048253687,0.9030800786594998,0.0124670515210602
1.546,1.9465183379799185,0.6675888155767817,0.4878862400643559
1.547,0.8317775127748045,-0.3104996858357923,1.050786061218706
1.548,0.3275732409594977,0.8691282396389473,-0.8508906929544761
1.549,1.4475787087714485,-1.1641759463257366,-0.6709459274912442
1.55,0.1201193240829045,0.5520965213569381,0.1824953249504368
1.551,-0.8225486823802824,-0.7112901706698799,0.3756227954433948
1.552,0.0636526573536756,-0.011728172584094,0.6843135958521107
1.553,-1.8965897705094643,0.7106007051750333,0.2980418187167318
1.554,0.3393849391158628,-0.0750084227530743,-0.6263806398620175
1.555,1.4186906698518815,1.4510730347353775,0.2204608419900691
1.556,-1.7626653620416948,-0.0366433116727663,0.7305456622781994
1.557,0.3052457566730658,-1.499304415117325,-0.6825123621724979
1.558,-0.1831105909873006,-0.2063324548380724,0.210544349956214
1.559,-2.4664400859069464,-0.7407353350474016,-0.1129959342790898
1.56,2.224882941045524,-1.879733136797408,-0.4943178834722727
1.561,1.1298237797398163,0.1829928628989784,0.6331485376332896
1.562,-0.8711318842828631,-0.3467165375007696,-0.344105757961143
1.563,1.5368616477499617,-1.9521901907731816,-2.019521499497688
1.564,0.2592948760739037,0.9981872590795208,-0.9746868999577644
1.565,-1.6668218684300462,1.9447056873450608,0.7107295143599522
1.566,1.0392314296513978,1.240473560095513,0.5918831352988602
1.567,-0.5560092765546492,0.6426736764881095,1.489889675369768
1.568,0.1490073630024717,0.8283580120393016,0.9633054286076512
1.569,1.7928987665291356,-0.670543293716053,-1.3791248823639914
1.57,-0.7923512323508095,-0.1361404135067238,0.6446981361650802
1.571,-0.5034843422387445,0.6358786385548352,-0.3804213323533764
1.572,0.0636526573536756,0.4479292903592182,0.6083825617728467
1.573,-1.481681936756278,-0.2312475939267447,0.5076855518331396
1.574,0.2934340585167007,-0.0523582963088267,-0.411787078803414
1.575,1.195483322405599,-0.9920816866410928,0.7718110646126288
1.576,0.3105103992799029,-1.1641759463257366,0.3640731969116041
1.577,-0.7634631934312424,-0.3648366386561676,-0.0271652443154339
1.578,-0.244814902156152,-0.3150297111246418,-0.8013587412335902
1.579,-1.838827191753937,-0.0139931852285188,-0.4481026531956474
1.58,-0.0229979603214188,-0.6931700695144818,-0.1988434603922091
1.581,0.9985316925754654,0.1060057836343555,-0.1823271977687594
1.582,0.3892910512119563,0.8487431258391245,0.0850982003055271
1.583,0.3892910512119563,-0.5459909489185103,-1.1628813786579892
1.584,-1.343815795875184,0.5928667489565836,0.0207167647580533
1.585,0.2868735038835653,0.3007501697632468,0.6925801452385671
1.586,1.3622375022062598,-0.1950073916159486,0.2765757281510864
1.587,-0.559937509884366,1.2993638888505568,0.235310325816657
1.588,2.012177880645701,0.9981872590795208,1.0474861759239087
1.589,0.0820384092267833,-0.9920816866410928,-0.7419271336283124
1.59,-1.7088310166158842,0.3369903720740428,-0.956537530836379
1.591,0.3078780779764843,-0.9490697970428412,1.2323639331798732
1.592,-0.6846825414991888,1.00271728436837,0.1725788329165818
1.593,-2.2668696338570014,0.7423108821969798,1.054085946513503
1.594,1.9452089268700128,0.730985818974856,0.7833606631444194
1.595,0.6939113718937108,-0.5233408224742628,-0.7997087985861916
1.596,-2.0003167289477606,1.154426430253191,1.3116116887033975
1.597,0.8987329674668856,-0.8018673258010511,0.902223878354975
1.598,-1.4199641265038192,-1.759710817288715,-2.073986443011307
1.599,-0.8488043999964313,1.079704363632993,-0.3507055285507376
1.6,2.62666966553244,-2.251101807899793,0.0075172235788644
1.601,-0.3459230383746374,-1.4313773864304011,-0.213692944218797
1.602,0.0636526573536756,0.900815066015075,1.489889675369768
1.603,1.943899515760107,0.1829928628989784,-1.4567058590906543
1.604,-1.4869330802795075,-0.91509460737647,-2.25228126582714
1.605,-1.929419541842356,2.218702165383,-0.0254984655185719
1.606,2.416583427352428,2.046607905698356,1.489889675369768
1.607,-0.9236433195151604,-0.6682782810716283,1.489889675369768
1.608,1.1692141057058432,0.8215629741060274,-1.3147434468165178
1.609,1.4186906698518815,2.463253479043417,-0.4365362185143936
1.61,-2.378466558038339,-1.066803753261291,0.4944860106539503
1.611,0.662391011670725,-0.7248802465364284,0.1247136599925579
1.612,0.2501020001373499,0.1331859353674526,1.489889675369768
1.613,-2.584611063805027,-1.1075739808609366,-0.3721716191163832
1.614,1.9123791555371208,-0.3127646984802171,-1.2289127568528615
1.615,0.4352419318111184,-0.3308847996356152,1.4387077810014834
1.616,-1.7495307536918168,0.6879739293766045,0.3492237130850166
1.617,1.7036158275506224,-1.6759287000908183,-1.4534059737958571
1.618,-1.9136661112726665,-0.8901794682877978,0.2765757281510864
1.619,-1.8847780723530991,1.0163073602349186,-0.1526113939661205
1.62,1.6274539978383802,0.1263908974341783,-0.5240336872749117
1.621,1.0851823102505598,-0.5958212270958549,1.489889675369768
1.622,-0.8015441082873634,-0.6320380787608322,-0.6610462716068524
1.623,1.565749686669529,1.3944710692705775,-2.19614954351666
1.624,0.3709052993388486,-1.743855728777742,-1.0886002872261238
1.625,-1.8335760482307075,1.2925688509172824,0.370672967501199
1.6260000000000001,1.3556634484895171,1.0638492751220197,0.3162080239875803
1.627,0.6138078097681444,-0.4508837684984895,1.489889675369768
1.6280000000000001,-0.802853519397269,1.3265206899378348,0.3756227954433948
1.629,2.308914736500808,0.5747466478011857,-1.3329096520873662
1.6300000000000001,-1.472489060819724,0.8962850407262255,0.3294075651667695
1.631,-0.6452922155331622,-0.4531487811429142,0.6182822176572383
1.6320000000000001,0.747732218235914,0.590601736312159,0.902223878354975
1.633,-1.956998169652017,1.0751743383441434,0.8592916972236835
1.6340000000000001,0.1883976889684985,-1.1913560980588336,-1.7356976918461946
1.635,1.875621150874513,0.5838066983788847,0.2022946367192206
1.6360000000000001,-1.165249917918158,0.0697889319693782,1.489889675369768
1.637,0.2606042871838093,-2.140139538968799,-0.3094401262163082
1.6380000000000001,0.9814553518122632,-3.0323210144139643,-0.9020557511732974
1.639,-2.1079854197993817,1.4420129841576783,-0.3754715044111806
1.6400000000000001,0.0308363851043915,-0.6728083063604778,-1.1034497710527116
1.641,1.3845514874090843,-0.7180852086031541,0.9187233048289613
1.6420000000000001,-0.3656182013576508,1.192931645208412,0.3145580813401816
1.643,-0.0859441871821394,-0.9218896453097444,-2.3166458652251505
1.6440000000000001,1.335968285506504,0.5770116604456104,0.2501766457927079
1.645,-0.2225009169533274,1.872248633369288,0.5275016997513864
1.6460000000000001,-1.872966374196734,1.58919210475365,0.2237607272848663
1.647,1.7915893554192297,-0.1384054261511486,1.0161204294738713
1.6480000000000001,-0.4483405857030285,1.0344274613903166,0.311241359895921
1.649,0.2317297473478493,-0.7407353350474016,-0.8971059232311013
1.6500000000000001,1.5880636718723535,-1.2117412118586564,0.5605173888488227
1.651,-1.978002743744936,0.3188702709186448,0.6166322750098397
1.6520000000000001,0.5901709143718069,-0.4690038696538875,-0.2962237488876558
1.653,-0.1161416372116123,0.128655910078603,1.3462773204482328
1.6540000000000001,-2.683086878720093,0.2532082548761458,0.2848422775375429
1.655,1.999043272295823,0.0086335905699099,-0.5108341460957224
1.6560000000000001,-1.7009610508728432,0.0403437675918564,1.306661860761202
1.657,1.26768992062091,-0.2719944708805715,-0.3804213323533764
1.6580000000000001,-1.3858249440610222,-0.3014396352580933,-1.1760809198371789
1.659,-1.6746918341730872,0.7468409074858293,1.1069177835291866
1.6600000000000001,1.7416967424067435,-0.7520603982695253,-1.5953683860699934
1.661,1.5132247523536242,-1.8570830103531608,-0.2219426574557903
1.6620000000000001,-0.6571039136895274,0.5543615340013628,1.489889675369768
1.663,0.9263115952765472,1.014042347590494,-1.9138746616157851
1.6640000000000001,0.4890762772369287,-3.401424672871924,-1.3824247676587889
1.665,-1.744279610168587,1.31521897736153,0.0933479135425205
1.666,1.5158570736570427,1.976415864367008,-1.0060526464078017
1.667,-0.5533769552512307,-0.1633205652398209,1.489889675369768
1.668,-0.1082716714685713,0.5362414328459648,1.489889675369768
1.669,1.3845514874090843,2.977294596098742,-1.3329096520873662
1.67,-2.0961737216430163,1.4986149496224783,-1.2223129862632671
1.671,0.164760793572161,-1.968045279284155,0.5275016997513864
1.672,0.8173334933150208,-0.8041323384454758,-0.0337650149050283
1.673,-2.211712378237678,0.2169680525653497,1.489889675369768
1.674,0.1082941268429321,-0.247102682437718,-0.3721716191163832
1.675,1.4252512244850166,-0.3172947237690666,-1.7934625206546106
1.676,-0.6439828044232566,-0.2085974674824971,1.0276700280056617
1.677,-0.0715001677223558,-1.472147614030047,1.0276700280056617
1.678,-0.5652021524912031,-1.1166340314386356,-1.342809307971758
1.679,-1.71014042772579,0.5860717110233095,-0.3275894953376933
1.68,0.0991147499899855,1.1431013670310672,0.4647702068513115
1.681,1.102258651013762,-0.951334809687266,1.489889675369768
1.682,0.5100808513298478,-1.723493965623738,-0.4035373655664208
1.683,-0.1240251020382605,1.4057727818468826,-2.381027300772624
1.684,-0.0335002473678783,0.63814365119926,-1.1034497710527116
1.685,-0.4142014032602314,0.4343625651384885,-0.0667807040024645
1.686,-1.2505911244833467,-0.1225503376401753,1.1366335873318254
1.687,1.8611771314147296,0.7604309833523778,1.489889675369768
1.688,0.1266798787160399,0.3528454605850161,-0.1245455328108803
1.689,0.8698449285473183,1.070644313055294,-1.1348155175027492
1.69,1.4108072050252332,-0.0455632583755525,-0.146011623376526
1.691,-1.374013245904657,-0.2833195341026953,0.4581704362617167
1.692,-0.3787528097075288,-0.5143041225423826,1.3446273778008342
1.693,0.1870747787749856,1.1974616704972614,1.489889675369768
1.694,-2.294434762583056,0.6177585373994371,-0.8806064967571148
1.695,1.3635469133161655,0.3618821605168963,-0.7666931094887554
1.696,-0.3419813059613133,0.1490410238784258,1.4717234700989197
1.697,-1.654996671190074,1.5620353036663717,-1.423690169993218
1.698,1.1810393029458155,-2.466207957182688,-0.3573052991403321
1.699,-0.7280145998785398,1.6571424840863924,0.3376572784037626
1.7,-0.3432907170712189,-1.6306517978481418,-1.968339605129404
1.701,2.377193101386401,-2.5431950364473117,1.489889675369768
1.702,0.0570921027205402,1.6458174208642689,1.2950954260799483
1.703,-0.4903497338888664,0.0222236664364584,-2.262180921711532
1.704,1.2007344659288288,-1.6781937127352426,-1.6350006819064875
1.705,-0.4535917292262582,2.9931263339638967,-0.700661731293883
1.706,-1.9635587242851529,2.544770583596889,0.6545977920494719
1.707,1.3504123049662873,-1.1845610601255594,1.489889675369768
1.708,0.641386437577806,-0.3286197869911904,0.969905199197246
1.709,0.7700597025223459,1.7454546265731392,-2.25228126582714
1.71,0.973571886985615,-1.4359074117192503,-0.339155930018947
1.711,-1.037886064083524,-0.6093879523165847,0.5935330779462588
1.712,0.1017335722097967,0.1716911503226734,0.2138610714004746
1.713,-0.4654034273826233,-1.0532136773947425,1.489889675369768
1.714,-0.2645100651391654,0.2124380272765001,-1.689465625420106
1.715,0.4838251337136991,-0.4191969421223617,-0.9004058085258988
1.716,-0.8566878648230795,0.7717560465745016,1.489889675369768
1.717,0.0295134749108786,-0.4304986546986666,-0.5141340313905198
1.718,-0.7358845656215808,-0.1565255273065466,-1.034118507563042
1.719,-0.6085207117869467,-0.625243040827558,1.070602209136953
1.72,0.0715361221803238,0.3528454605850161,-0.97963672789996
1.721,-0.8790018500259041,-0.088575147973804,0.6925801452385671
1.722,1.220429628911842,-0.4780639202315865,1.489889675369768
1.723,0.1122358592562562,0.5317114075571153,-2.613787067102076
1.724,-0.0085539408616352,-1.6917837886017917,-1.9666896624820047
1.725,1.2414342030047611,-0.8516976039783958,0.5786667579702078
1.726,0.7805619895688054,0.1060057836343555,0.3195079092823775
1.727,-1.0995903752523752,1.530325126644425,0.9385394527472082
1.728,-0.2198685956499089,1.1227396038770634,1.489889675369768
1.729,0.0308363851043915,0.5272047329140845,-0.1509614513187219
1.73,0.2802994501668227,0.271305005385725,-0.6082312707406324
1.731,-0.0440160334979451,-0.050093283664402,-0.3837212176481737
1.732,0.4234302336547533,0.5090846317586866,0.4301045751064766
1.733,-1.7219656249657622,0.94611531890357,1.2125646214110894
1.734,-0.559937509884366,0.241883191654022,0.5489509541675687
1.735,1.054984860221087,-0.7112901706698799,-0.903705693820696
1.736,-0.5126772181752983,-1.4155222979194275,0.1940449234822275
1.737,-0.3603670578344211,1.3333157278711092,1.3858927801352636
1.738,-0.2146174521266791,-1.70537386446834,-1.247062125974247
1.739,-0.0426931233044322,-1.4427024496525247,0.4664201494987102
1.74,-0.3104744448219348,0.486434505314439,-0.7089114445308762
1.741,0.0465898156740807,-0.9762265981301196,-1.05228471283389
1.742,1.3950537744555438,-0.1655622272384268,1.489889675369768
1.743,-0.9591054121514704,0.94611531890357,0.3756227954433948
1.744,-0.2461378123496649,1.0548125751901394,-2.341411841085593
1.745,1.170537015899356,-0.5663760627183332,-0.2285424280453847
1.746,-0.5047937533486501,1.3808809934040291,0.5175852077175314
1.747,0.4076633040014568,0.8849599775041016,0.7619114087282367
1.748,0.8737866609606425,0.3030151824076715,1.489889675369768
1.749,0.4194885012414291,1.7160094621956177,-0.2301923706927834
1.75,0.1398144870659178,-0.0387682204422782,-1.7026820027487584
1.7510000000000001,-0.2225009169533274,-1.3272101554326812,0.0718818229768748
1.752,0.2080928519515119,-0.7928072752233521,0.639748308222884
1.7530000000000001,-1.2873491291459551,0.1943179261211021,1.2274141052376772
1.754,-0.8159881277471471,-0.1112252744180515,-1.247062125974247
1.7550000000000001,-0.1791688585739765,0.9212001798148978,0.1857952102452341
1.756,-0.8304186481233234,0.6517337270658085,1.3990923213144526
1.7570000000000001,1.2690128308144228,-0.4350286799875162,-0.0139488669867812
1.758,-1.502686510849197,-0.8018673258010511,-0.5867651801749867
1.7590000000000001,0.7490551284294269,0.5951317616010084,-0.5487996631353547
1.76,0.8527820868677235,-1.1619109336813118,-0.7254277071543259
1.7610000000000001,-0.78184894530435,-0.7905422625789273,1.1960483587876398
1.762,1.955711213916472,-2.194476491789174,1.156432899100609
1.7630000000000001,0.3748470317521727,0.53397642020154,-1.2916442497529366
1.764,-1.5447091581186418,-0.1180203123513258,-1.5557529263829628
1.7650000000000001,0.4772510799969564,-1.010201787796491,-0.7089114445308762
1.766,-0.6518527701662976,1.7590213517938689,0.5951830205936574
1.7670000000000001,-0.4864215005591495,0.7694910339300768,0.5192519865143933
1.768,1.769261871132798,0.241883191654022,1.489889675369768
1.7690000000000001,-0.0715001677223558,-0.813192389023175,-0.1988434603922091
1.77,0.2369808908710791,2.488168618132089,-1.694415453362302
1.7710000000000001,0.7661179701090217,-0.8539626166228205,0.7486950313995845
1.772,-0.5113678070653928,-0.7067601453810304,1.070602209136953
1.7730000000000001,0.288182914993471,-0.2651994329472972,0.6612143987885297
1.774,-0.1542225520677334,-0.5052440719646836,-0.4662520223170325
1.7750000000000001,-0.210675719713355,1.3740859554707547,-1.2520119539164427
1.776,-0.90527106672566,1.5439152025109737,0.4812696333252981
1.7770000000000001,0.1542585065257015,-2.1310794883911,1.4832899047801735
1.778,-1.2387794263269818,-0.9920816866410928,-0.1889269683583541
1.7790000000000001,-0.6820502201957703,0.0471388055251307,-1.679565969535714
1.78,0.3551518687691593,0.5883367236677342,-0.3523554711981362
1.7810000000000001,0.2041511195381877,-1.6781937127352426,-0.2714746091766762
1.782,0.7963154201384945,0.1603660871005496,0.7817107204970208
1.7830000000000001,0.8777283933739666,-0.8267824648897235,0.7536448593417803
1.784,-0.2421960799363408,-0.9332147085318682,-2.19614954351666
1.7850000000000001,0.751673950649238,0.4932295432477133,-0.9499377602467848
1.786,-0.2251197391731386,1.4488080220909527,0.5753668726754106
1.7870000000000001,-1.3293717764154005,0.486434505314439,0.4069885418934322
1.788,2.476978327411373,-0.6818683569381768,1.4304580677644902
1.7890000000000001,0.0019483461848242,0.5611565719346371,0.2848422775375429
1.79,-0.1607831067008688,0.1173308468564793,-0.9631373014259738
1.7910000000000001,1.0746800232041005,0.656263752354658,0.0982977414847163
1.792,-1.0575812270665372,0.701564005243153,0.2320104405218598
1.793,-0.2776446734890434,-0.4010768409669636,0.9946543389082256
1.794,-0.9078898889454712,-0.5459909489185103,1.1844987602558492
1.795,-0.2330032039997869,0.1490410238784258,-0.700661731293883
1.796,0.1109264481463506,0.8147679361727531,0.2749257855036878
1.797,0.2382903019809847,-0.9037695441543464,0.4614703215565139
1.798,-0.305223301298705,-0.7769755373581977,-0.4018705867695588
1.799,-0.347232449484543,-1.354390307165778,-0.3408058726663458
1.8,-0.777907212891026,0.1377159606563021,-0.836024372978425
1.801,1.0956845972970193,0.1150658342120545,-0.4464527105482488
1.802,0.8238940479481561,0.3007501697632468,-0.000749325807592
1.803,-0.8474949888865256,0.4524593156480677,1.097001291495331
1.804,1.0773123445075188,0.4253025145607894,-0.8508906929544761
1.805,0.5652246078655637,-0.9241546579541692,-0.9614873587785748
1.806,-0.9669753778945114,2.438361690600563,0.099947684132115
1.807,0.9998411036853708,1.3967360819150023,0.0355662485846412
1.808,0.7963154201384945,-0.2380426318600189,1.156432899100609
1.809,0.0531503703072161,0.1988479514099516,1.489889675369768
1.81,0.5862426810420901,-0.0004031093619702,-1.1942471251080269
1.811,0.2133439954747416,-0.849432591333971,-0.7617432815465593
1.812,-0.8658807407596333,-0.9966117119299424,-0.1195957048686845
1.813,-0.4325871551333392,0.5022895938254123,0.529151642398785
1.814,-0.1253345131481661,-0.2991746226136685,1.489889675369768
1.815,-0.7765978017811204,0.6675888155767817,-0.9895532199338152
1.816,1.4108072050252332,-0.2018024295492229,-0.5999647213541758
1.817,-0.8225486823802824,0.3890623122499934,1.489889675369768
1.818,-0.8645578305661205,0.2532082548761458,0.3921390580668443
1.819,0.4181655910479163,0.0403437675918564,-0.6692959848438456
1.82,-0.9380873389749442,-0.822252439600874,-0.9070055791154932
1.821,0.2159628176945528,-1.103043955572087,-0.4448027679008502
1.822,1.5906959931757718,-0.5731711006516074,0.0256665927002495
1.823,0.015069455451095,-1.1709709842590108,-0.1691276565895703
1.824,-0.5704532960144328,-0.425991980055636,-1.2734780444820883
1.825,0.8094500284883727,0.4049174007609666,-0.0288151869628325
1.826,-0.5822649941707979,-0.1633205652398209,0.5407012409305756
1.827,-0.1660342502240985,0.2826300686078488,0.3013417040115294
1.828,1.7088669710738524,2.5221438077984604,0.3723229101485976
1.829,-0.7713331591742834,2.236822266538398,0.5522508394623663
